,Ax,Ay,Az,Gx,Gy,Gz,Label
0,0.019068058212987,-0.30294810676067185,0.6820178053854676,1.048809407783277,0.7782049682568671,-0.9025625458548604,0
1,-0.3777098378632336,-0.17757054109173984,0.5376905498817535,0.9834713694860678,1.2530795572560725,-0.8860051413448259,0
2,-0.6007858663918434,-0.05658362947347088,0.3783465857129131,0.5730144622343685,1.436209385460553,-0.7915305391405106,0
3,-0.8488464101156574,0.033668703790157205,0.28073797938959194,0.3568963355589837,1.4551538504472237,-0.5743363505677034,0
4,-1.002322717743341,0.061964029894429784,0.3132741814973657,0.4590917287930804,1.1848794833040588,-0.26753738464647336,0
5,-1.0392046211267378,0.11562757940253295,0.6886918981255238,0.6802358584144041,1.1874054119689479,-0.15650537793212346,0
6,-0.9006000487342949,0.04684066594214617,0.5410275962517815,0.7958339261710051,1.0800534437111489,-0.11754677908498315,0
7,-0.8036363350005259,-0.0829275537774488,0.32495384379246395,0.7623272398647439,1.1381498030036052,-0.11462488417144764,0
8,-0.8119645067322606,-0.06536493757479685,-0.15307804871405728,0.4105070336490016,1.0939460513680406,-0.23637050556876116,0
9,-1.16293745828394,-0.05170512497273423,-0.047961088058173035,0.08884284510889423,1.1709868756471669,-0.3113658083495062,0
10,-1.388987833859598,-0.06634063847494419,-0.16892901897169066,-0.10214526683679452,0.6089677477092776,-0.20520362649104884,0
11,-1.4288440842900432,-0.1463481122870253,-0.15641509508408535,-0.15910663355743854,0.2490229129625394,-0.09709351469023447,0
12,-1.5139104098356193,-0.18049764379218186,-0.06881762787084847,-0.08706725799897701,-0.03893295483485116,0.11912670891139425,0
13,-2.18135388719322,-0.2561144635536,0.4734524072587131,0.3183636463067833,0.028004154784717718,0.9323874598454482,0
14,-2.811915461167424,0.015618237137431587,0.5118284405140361,0.7472492310269264,-0.9823673111710388,2.2219170816857923,0
15,-2.2830765562022663,0.2712518729760322,0.3516502147526885,1.0354067332607728,-1.5696457257578225,3.1686110336713034,0
16,-1.7203300949007596,0.4332182224004891,0.2423619461342692,1.1158227803957996,-2.535813440078014,4.0315439981354615,0
17,-0.5240477125780016,0.3668705611904706,-0.3382841222506153,1.1225241176570515,-3.2178141795981503,4.1698470240428085,0
18,0.5925221688838666,0.4063864476464375,-0.5401754276373136,1.0906927656661038,-2.6520061586629256,4.025700208308391,0
19,1.2688886873826113,0.4580985953542461,-0.7262157627663786,0.8745746389907191,-1.80582005592498,3.6672810989146982,0
20,1.7263432632186138,0.37857897199223856,-0.9130903594879506,0.7120672104053523,-0.948267274195032,2.9913494089168133,0
21,2.386648307663299,0.32686682428443004,-0.6519664810332539,0.16925889224392107,-0.25363689135044937,1.916092080735741,0
22,2.25756164582141,0.4546836422037304,-0.3482952613606995,-0.2931333787824833,0.12651537271540395,0.8593400870070602,0
23,2.0487624831186317,0.5498144799680951,0.231516545431678,-0.1674833051340039,-0.08313670647041549,0.19509597666331785,0
24,1.65317432586123,0.8059359662567693,0.03379654800751472,0.07544017058638976,0.1113598007260676,0.08406396994896798,0
25,1.8357992345499852,0.8078873680570641,0.1772895419187218,0.2262202589645651,-0.008621810856178464,0.1765906422109262,6
26,1.955962855250729,0.7678836311510235,0.07133831967033052,0.12905086867640764,0.036844905111830584,0.10549119931489516,0
27,1.8304454098652985,0.8274013860600107,0.14225055503342704,-0.0033005422333240125,-0.0010440248615102869,0.05094916092889872,0
28,1.8274710628182504,0.7927640041047804,0.09803469063055507,-0.026755222647706856,-0.2321664976988896,0.06653260046775485,0
29,1.857809402698141,0.8274013860600107,0.08718928992796386,0.12067419709984235,-0.1437589944277609,0.04413140613064915,0
30,1.8750606155710203,0.7922761536547067,0.0037631306772620736,0.1642328892979819,-0.4759186138607159,0.10451723434371664,0
31,1.977378153989476,0.8073995176069904,-0.14139838641895905,0.2128175844420606,-0.3685666456029167,0.08990775977603903,0
32,2.0208036208763787,0.8244742833595686,-0.12888446253135374,0.0938688480548334,-0.05408852682418749,0.0003029824276163032,0
33,1.957152594069549,0.8381340959616312,-0.0371156873555818,0.04025814996481551,-0.03388109750507237,-0.004566842428276235,0
34,2.008311363278777,0.8527696094638413,-0.11887332342126955,0.008426797973867386,-0.01619959685084664,0.005172807283508842,0
35,1.9625064187542356,0.8220350311092003,-0.09551399883107303,-0.0066512108639501365,0.04821158410383284,0.0022509123699733192,0
36,1.9446603364719464,0.8376462455115576,-0.08550285972098884,0.0201541381810588,0.0077967254656025765,-0.000670982543562205,0
37,1.98749093394944,0.8000817608558854,-0.08300007494346777,0.045284152910754674,0.05705233443094571,-0.007488737341811759,0
38,1.9553679858413202,0.8542331608140622,-0.08466859812848182,0.021829472496371845,0.07725976375006084,0.004198842312330336,0
39,1.9512038999754528,0.8513060581136203,-0.034612902578060746,-0.0033005422333240125,0.07725976375006084,-0.007488737341811759,0
40,1.957152594069549,0.8249621338096423,0.0187798393423884,-0.031781225593646045,0.026741190452273016,0.0012769473987948108,0
41,2.013665187963463,0.8352069932611893,-0.054635180798229176,-0.026755222647706856,0.012848582795381359,-0.014306492140061315,0
42,1.9381167729684408,0.8191079284087583,-0.06297779672329935,-0.0016252079180109874,0.03937083377671997,0.011990562081758398,0
43,1.979162762217705,0.7669079302508761,-0.058806488760764275,0.02350480681168493,0.025478226119828317,0.0003029824276163032,0
44,1.9553679858413202,0.7991060599557379,-0.07298893583338358,-0.0016252079180109874,0.028004154784717718,-0.014306492140061315,0
45,1.9345475565119832,0.8293527878603053,-0.09050842927603096,-0.03513189422427214,0.049474548436277535,-0.0026189124859192204,0
46,1.9940344974529456,0.8537453103639886,0.04130490234007788,-0.09376859526022924,-0.01241070385351254,0.0012769473987948108,0
47,1.9553679858413202,0.8215471806591267,-0.02126471709794846,-0.11554794135929901,-0.04019591916729584,-0.011384597226525793,0
48,1.9399013811966697,0.8137415734579481,0.00543165386227611,-0.0954439295755423,-0.04903666949440872,-0.01625442208241833,0
49,1.9660756352106927,0.8161808257083164,-0.07632598220341164,-0.031781225593646045,-0.07303299181085793,0.0003029824276163032,0
50,1.955962855250729,0.8073995176069904,-0.052132396020708134,-0.051885237377402735,-0.04524777649707463,-0.0123585621977043,0
51,1.9898704115870784,0.8034967140064011,-0.02376750187546952,-0.04685923443146358,-0.1109219217841988,-0.02696803676538192,0
52,1.98749093394944,0.8161808257083164,-0.05296665761321514,-0.051885237377402735,-0.021251454180625413,-0.014306492140061315,0
53,1.9886806727682589,0.8259378347097897,-0.12387889297631165,-0.06696324621522028,0.001481903803379108,-0.02015028196713236,0
54,2.008311363278777,0.8171565266084637,0.017111316157374358,-0.10549593546742066,0.04063379810916466,0.01491245699529392,0
55,1.9535833776130909,0.8083752185071377,0.022116885712416462,-0.0820412550530378,0.01158561846293667,0.03633968636122109,0
56,1.9446603364719464,0.7103172780423309,0.10637730655562527,-0.0033005422333240125,-0.09702931412730716,0.005172807283508842,0
57,2.0975417746902205,0.5181042007133069,0.2215054063215937,0.3267403178833486,-0.2334294620313343,-0.18182846718276469,0
58,2.281356422197795,0.4459023341024044,-0.2298301152247029,0.6467291721081431,-0.19048867472821465,-0.6629671629449477,0
59,2.6115089444201374,0.39711728909503785,-0.3349470758805872,0.8058859320628835,-0.017462561183291328,-1.4976551432449288,0
60,2.566298869305006,0.4249247647492368,-0.6661489281058732,0.3418183267211661,1.211401734285397,-2.9615244949262265,0
61,1.7959429841195402,0.6439696168323125,-1.024881412883891,-0.5343815201875638,2.308917739179838,-3.802056265053279,0
62,0.924459299334438,0.4229733629489421,-0.9673173630009068,-1.0051504627905334,3.1538408775853397,-4.280273065901926,0
63,0.17789819052535716,0.6186013934284819,-1.0515777838441156,-1.3971786925737897,3.566830214294756,-4.574410487197835,0
64,-1.3003522918575636,0.3107677594319991,-0.8922338196752752,-1.4725687367628768,2.5829809993203368,-4.275403241046033,0
65,-1.9416215152011405,0.17124253071093082,0.19230625058384807,-1.814336937086741,0.4851972431296975,-3.527398143180939,0
66,-2.29259446675282,-0.12390699158363667,-0.3491295229532065,-1.1391772080155782,1.1103645876898218,-2.5125266432129343,0
67,-2.032636534840813,-0.12049203843312105,-0.0980167836085941,-0.996773791213968,0.4675157424754717,-1.6096611149304574,0
68,-1.7578068676935659,-0.3019724058605245,-0.2281615920396889,-0.6265249075297821,-0.002306989193954985,-1.1392360338512375,0
69,-1.5757768284142206,-0.3600266094192907,-0.35330083091574155,-0.4975241652506766,0.12398944405051456,-0.7584157301204414,0
70,-2.5703984809471154,-0.4658901570852761,0.26321848594694464,-0.0535605716927158,-0.6148446904296324,0.1561373778161776,0
71,-0.7203546176831782,-0.3624658616696591,-0.5343355964897645,0.20946691581143453,-0.1374441727655374,-0.0240461418518464,0
72,-1.6519201128186527,-0.37124716977098504,0.15726726369855334,0.3116623090455311,-0.07808484914063671,0.004198842312330336,0
73,-1.1795938017474097,-0.2961182004596405,-0.2281615920396889,0.1977395756042431,-0.03261813317262767,-0.009436667284168771,0
74,-1.314034288273985,-0.33709763826582845,-0.1497410023440292,0.0570114931179461,0.03810786944427527,0.011990562081758398,0
75,-1.2599011720177091,-0.32734062926435514,-0.1489067407515222,0.07041416764045058,0.0317930477820518,0.0071207372258658575,0
76,-1.2819113401658653,-0.3107537139618505,-0.1964596515244222,0.07041416764045058,0.01158561846293667,0.008094702197044366,0
77,-1.2896446424881904,-0.3253892274640605,-0.16559197260166256,0.02350480681168493,-0.025040347177959516,0.008094702197044366,0
78,-1.2878600342599615,-0.3234378256637658,-0.2231560224846468,-0.004975876548637087,-0.03640702616996175,0.00614677225468735,0
79,-1.2622806496553476,-0.3048995085609665,-0.16475771100915554,0.008426797973867386,0.025478226119828317,0.009068667168222877,0
80,-1.2926189895352385,-0.3161200689126608,-0.19228834356188712,0.025180141126997967,0.02168933312249423,-0.0016449475147407126,0
81,-1.2361063956413239,-0.3263649283642078,-0.1764373733042538,0.005076129343241261,-0.01872552551573604,0.0071207372258658575,0
82,-1.256331955561251,-0.2961182004596405,-0.17310032693422572,0.018478803865745744,0.014111547127826066,-0.005540807399454745,0
83,-1.2801267319376364,-0.3249013770139868,-0.1764373733042538,-0.016703216755828483,-0.04019591916729584,0.005172807283508842,0
84,-1.2515730002859744,-0.3307555824148708,-0.15224378712155026,-0.004975876548637087,-0.026303311510404184,0.0003029824276163032,0
85,-1.2462191756012877,-0.3288041806145761,-0.13305577049388884,0.013452800919806558,0.010322654130491963,0.0032248773411518265,0
86,-1.2628755190647571,-0.32734062926435514,-0.21147636018954852,0.008426797973867386,0.0002189394709344104,0.004198842312330336,0
87,-1.245624306191878,-0.3190471716131028,-0.15057526393653622,-0.0016252079180109874,-0.031355168840182975,0.0032248773411518265,0
88,-1.2587114331988898,-0.3278284797144288,-0.15140952552904324,0.0017254607126151367,-0.002306989193954985,0.0032248773411518265,0
89,-1.2491935226483355,-0.32685277881428143,-0.1497410023440292,0.008426797973867386,-0.0010440248615102869,0.004198842312330336,0
90,-1.2551422167424322,-0.32441352656391315,-0.139729863233945,0.005076129343241261,-0.0060958821912890605,-0.2461101552805462,0
91,-1.2587114331988898,-0.3327069842151654,-0.1489067407515222,0.013452800919806558,0.004007832468268494,0.0022509123699733192,0
92,-1.2961882059916965,-0.31758362026288184,-0.1497410023440292,0.006751463658554311,-0.011147739521067849,0.0071207372258658575,0
93,-1.2599011720177091,-0.3180714707129555,-0.12471315456881868,-0.0083265451792632,-0.041458883499740536,0.0003029824276163032,0
94,-1.2402704815071914,-0.3209985734133975,-0.13389003208639588,-0.018378551071141568,-0.04398481216462993,0.0003029824276163032,0
95,-1.2307525709566374,-0.3336826851153128,-0.15558083349157836,-0.0033005422333240125,-0.0060958821912890605,0.0022509123699733192,0
96,-1.2551422167424322,-0.3200228725132501,-0.14807247915901514,5.0126397302087016e-05,0.001481903803379108,0.0022509123699733192,0
97,-1.239675612097782,-0.3327069842151654,-0.07966302857343971,-0.011677213809889323,-0.0073588465237337764,0.00614677225468735,0
98,-1.2533576085142029,-0.3166079193627345,-0.10385661475614323,-0.02340455401708073,-0.0060958821912890605,0.00614677225468735,0
99,-1.2491935226483355,-0.3346583860154601,-0.12471315456881868,-0.025079888332393798,0.001481903803379108,0.008094702197044366,0
100,-1.2438396979636492,-0.3331948346652391,-0.12805020093884675,0.0017254607126151367,0.001481903803379108,-0.000670982543562205,0
101,-1.2426499591448301,-0.3024602563105982,-0.09968530679360814,-0.0033005422333240125,0.006533761133157889,0.0003029824276163032,0
102,-1.239080742688372,-0.3253892274640605,-0.1714318037492117,-0.015027882440515446,-0.002306989193954985,0.0003029824276163032,0
103,-1.1962501452108791,-0.3346583860154601,-0.10135382997862218,-0.04518390011615051,-0.01241070385351254,0.009068667168222877,0
104,-1.2242090074531315,-0.32929203106464977,-0.1297187241238608,-0.08036592073772475,-0.0073588465237337764,0.02562607167825751,0
105,-1.2402704815071914,-0.3414882923164914,-0.13138724730887485,-0.055235906008028864,0.0027448681358237964,0.013938492024115413,0
106,-1.228373093318999,-0.3385611896160494,-0.08550285972098884,-0.01000187949457626,0.006533761133157889,0.015886421966472428,0
107,-1.2408653509166008,-0.34002474096627044,-0.17310032693422572,0.026855475442311042,0.005270796800713201,0.008094702197044366,0
108,-1.225398746271951,-0.3288041806145761,-0.1630891878241415,0.025180141126997967,-0.0060958821912890605,0.00614677225468735,0
109,-1.2509781308765646,-0.3317312833150181,-0.14390117119648008,0.016803469550432684,-0.013673668185957244,0.005172807283508842,0
110,-1.2039834475332043,-0.3327069842151654,-0.11470201545873444,0.01177746660449351,0.001481903803379108,0.00614677225468735,0
111,-1.2218295298154929,-0.3019724058605245,-0.08550285972098884,0.01177746660449351,-0.0010440248615102869,-0.2451361903093677,0
112,-1.1992244922579272,-0.3331948346652391,-0.11970758501377655,-0.0016252079180109874,-0.011147739521067849,0.009068667168222877,0
113,-1.2599011720177091,-0.32929203106464977,-0.10051956838611516,-0.03848256285489827,-0.06924409881352385,0.011990562081758398,0
114,-1.3515110610667915,-0.3834434310228266,0.007100177047290145,-0.004975876548637087,0.07473383508517145,0.10451723434371664,0
115,-1.7042686208466995,-0.38051632832238463,0.052984564635176125,0.1273755343610946,0.3525859882230045,0.3937848307837335,0
116,-2.3217430678138915,-0.2434303518516847,0.09052633629799194,0.3016103031536528,-0.33699253729179923,1.3054160438068172,0
117,-2.714951747433654,-0.1375668041856993,0.5919175533947096,0.6618071809459607,-1.324630645263551,1.9988791032859148,0
118,-2.497824412999141,0.03757150739074653,0.6586584807952711,1.293408217818984,-1.7502496252974131,3.4851496493043177,0
119,-1.3455623669726953,0.1346537469554059,0.29825747283223936,1.7122417966472483,-2.4360392578148833,3.953626800441179,0
120,-0.5371348395850134,0.2434443973218333,-0.21147636018954852,1.9166325831154416,-3.387051400145738,4.07147656195378,0
121,0.7578958646997426,0.32540327293420906,-0.5785514608926364,2.0607113342323653,-3.017002850739442,3.766625525974906,0
122,1.1481301972724574,0.4478537359026991,-1.4445149939149209,1.5279550219628122,-1.7906644839356438,3.602999410816917,0
123,1.9131322577732364,0.5722556006714837,-1.112478880097128,0.9415880116032416,-0.8459671632670114,3.2348406517114414,0
124,2.4812325437594294,0.4195584097984265,-0.7962937365369681,-0.21104199733214335,-0.7045151580332059,2.578388261137127,0
125,2.5823603433590656,0.3195490675333251,-0.23066437681720994,-0.6399275820522865,-0.222062783039332,1.249900040449642,6
126,2.284925638654253,0.3858967287433436,0.5351877651042325,0.0017254607126151367,0.1113598007260676,0.2798309291558481,0
127,1.9535833776130909,0.6698256906862168,-0.027104548245497587,-0.0820412550530378,-0.27258135633711983,0.13957997330614294,0
128,1.9886806727682589,0.7156836329931413,-0.034612902578060746,-0.036807228539585214,-0.1096589574517541,0.2077575212886385,0
129,2.148105674490038,0.6576294294343751,0.08134945878041472,0.008426797973867386,-0.07555892047574732,0.1366580783926074,0
130,2.0785059535891124,0.6351883087309865,0.028790978452472613,0.028530809757624093,-0.047773705161964025,0.08211604000661096,0
131,2.0981366440996303,0.6576294294343751,-0.052132396020708134,0.04695948722606775,-0.04398481216462993,0.03828761630357811,0
132,2.0499522219374504,0.6659228870856274,-0.05797222716825725,0.01177746660449351,-0.01493663251840193,0.02757400162061453,0
133,2.1040853381937263,0.7005602690408577,-0.00708227002532916,-0.01000187949457626,0.029267119117162406,0.022704176764721987,0
134,2.1564338462217734,0.6605565321348171,0.007100177047290145,-0.0066512108639501365,-0.01241070385351254,0.005172807283508842,0
135,2.0945674276431725,0.7361733518962352,-0.057137965575750224,-0.02340455401708073,0.010322654130491963,0.005172807283508842,0
136,2.157623585040593,0.6800705501377637,-0.011253577987864248,-0.03848256285489827,-0.056614455489076884,0.018808316880007957,0
137,2.1040853381937263,0.6903154095893107,-0.06381205831580637,-0.013352548125202384,0.0027448681358237964,-0.0016449475147407126,0
138,2.115982726381919,0.701535969941005,-0.022098978690455483,-0.0083265451792632,0.004007832468268494,0.02562607167825751,0
139,2.1510800215370867,0.6693378402361431,-0.01792767072792039,0.01177746660449351,0.01663747579271545,0.0003029824276163032,0
140,2.1165775957913286,0.6903154095893107,-0.06297779672329935,0.013452800919806558,0.010322654130491963,0.018808316880007957,0
141,2.1278801145701114,0.6873883068888688,0.007934438639797162,0.0017254607126151367,0.015374511460270752,0.015886421966472428,0
142,2.1165775957913286,0.6712892420364378,-0.07549172061090463,-0.004975876548637087,0.0305300834496071,0.013938492024115413,0
143,2.1540543685841347,0.6873883068888688,0.02795671685996559,0.010102132289180436,0.04568565543894345,0.011016597110579887,0
144,2.1296647227983403,0.6781191483374691,-0.012922101172878285,-0.0016252079180109874,0.010322654130491963,0.012964527052936905,0
145,2.1088442934690037,0.6800705501377637,-0.02376750187546952,5.0126397302087016e-05,0.028004154784717718,0.015886421966472428,0
146,2.131449331026569,0.6747041951869535,-0.010419316395357231,-0.015027882440515446,0.01663747579271545,0.0022509123699733192,0
147,2.1070596852407744,0.6888518582390897,0.017945577749881376,5.0126397302087016e-05,0.01663747579271545,0.01004263213940138,0
148,2.13025959220775,0.6517752240334912,-0.030441594615525664,0.01177746660449351,0.005270796800713201,0.012964527052936905,0
149,2.1260955063418825,0.6790948492376164,-0.032944379393046716,-0.0016252079180109874,0.026741190452273016,-0.0026189124859192204,0
150,2.118362204019557,0.6620200834850382,-0.016259147542906357,0.02350480681168493,0.024215261787383632,-0.2451361903093677,0
151,2.155838976812364,0.6688499897860695,-0.06881762787084847,0.010102132289180436,0.036844905111830584,-0.010410632255347285,0
152,2.1100340322878233,0.6625079339351118,-0.00040817728527301584,0.025180141126997967,0.041896762441609364,-0.004566842428276235,0
153,2.1504851521276773,0.6727527933866587,-0.00624800843282214,0.010102132289180436,0.0317930477820518,-0.013332527168882806,0
154,2.1552441074029542,0.6800705501377637,-0.05296665761321514,0.006751463658554311,-0.002306989193954985,-0.010410632255347285,0
155,2.108249424059594,0.6664107375357011,-0.007916531617836177,0.0017254607126151367,0.012848582795381359,-0.013332527168882806,0
156,2.1237160287042443,0.6756798960871008,-0.016259147542906357,0.0201541381810588,0.026741190452273016,-0.01722838705359683,0
157,2.1011109911466783,0.691291110489458,0.0004260843072340021,0.010102132289180436,0.01916340445760484,-0.009436667284168771,0
158,2.111818640516052,0.6722649429365851,0.00126034589974102,0.021829472496371845,0.0077967254656025765,-0.0035928774570977273,0
159,2.115387856972509,0.6805584005878375,0.0187798393423884,0.03858281564950247,-0.00483291785884438,-0.000670982543562205,0
160,2.1195519428383767,0.6903154095893107,-0.04462404168814496,0.0017254607126151367,-0.0010440248615102869,-0.011384597226525793,0
161,2.133828808664208,0.6898275591392371,-0.019596193912934427,-0.0033005422333240125,-0.002306989193954985,-0.011384597226525793,0
162,2.1088442934690037,0.6829976528382057,-0.03794994894808882,0.0201541381810588,0.022952297454938927,0.0022509123699733192,0
163,2.1231211592948345,0.6683621393359958,-0.06714910468583445,0.025180141126997967,0.022952297454938927,-0.008462702312990268,0
164,2.1147929875631,0.6790948492376164,-0.00708227002532916,0.021829472496371845,0.025478226119828317,-0.005540807399454745,0
165,2.1106289016972317,0.681046251037911,-0.047126826465666016,0.015128135235119631,0.0317930477820518,-0.009436667284168771,0
166,2.1504851521276773,0.7000724185907841,-0.030441594615525664,0.005076129343241261,0.015374511460270752,-0.011384597226525793,0
167,2.0880238641396667,0.6829976528382057,0.0096029618248112,0.010102132289180436,-0.008621810856178464,-0.008462702312990268,0
168,2.1391826333488946,0.67958269968769,0.0096029618248112,5.0126397302087016e-05,-0.06545520581618976,0.008094702197044366,0
169,2.1260955063418825,0.6420182150320178,0.017945577749881376,-0.025079888332393798,-0.02882924017529358,-0.0123585621977043,0
170,2.1540543685841347,0.7034873717412997,-0.041286995318116894,-0.01000187949457626,-0.01493663251840193,-0.008462702312990268,0
171,2.124905767523064,0.6595808312346698,-0.014590624357892318,0.0017254607126151367,-0.013673668185957244,-0.0016449475147407126,0
172,2.1106289016972317,0.6664107375357011,-0.030441594615525664,0.0017254607126151367,0.009059689798047277,-0.01625442208241833,0
173,2.137992894530075,0.6703135411362904,0.00876870023230418,-0.004975876548637087,0.009059689798047277,-0.01820235202477535,0
174,2.117172465200738,0.6712892420364378,-0.012922101172878285,0.015128135235119631,0.06589308475805858,-0.03865561641952401,0
175,2.107654554650184,0.6893397086891634,-0.02460176346797653,-0.020053885386454636,-0.06166631281885567,-0.03865561641952401,0
176,2.109439162878413,0.6664107375357011,0.03045950163748665,-0.04685923443146358,-0.037669990502406464,-0.05229112601602312,0
177,2.2064028766121817,0.5390817700664745,0.15059317095849722,0.15083021477547742,-0.07303299181085793,-0.12436453388323272,0
178,2.2438796494049886,0.3566257017389237,-0.2431783007048152,0.3485196639824184,0.04442269110649876,-0.4749919235074955,0
179,2.5936628621378492,0.3073528062814834,-0.5318328117122434,0.2513502736942609,0.41952309784257336,-1.3174716235769048,0
180,2.621621724380101,0.20880701536660304,-0.7162046236562943,0.14245354319891212,1.270761057910298,-2.613819000215498,0
181,2.170710712047605,0.488833173708887,-1.1475178669824226,-0.3769000945481363,2.7585330415301503,-3.5877839713940065,0
182,1.363472923478742,0.34930794498781864,-0.65029795784824,-1.5948681417807302,2.2268250575709327,-4.174110884043468,0
183,0.677588494429443,0.47419766020667703,-0.232332900002224,-2.149403800149353,2.5084661037061,-4.583176171938441,0
184,-0.6097089075329878,0.1448986064069529,-0.18644851241433802,-1.5831408015735389,3.3849633504227183,-4.5208424137830185,0
185,-1.6852327997455918,-0.011701388066693668,0.4550986522235587,-1.8696229694920723,1.1735128043120566,-3.7640716311773166,0
186,-2.1676718907767984,-0.28343408875772524,0.12890236955331474,-0.6717589340432347,2.460473459073201,-2.9381493356179416,0
187,-2.1902769283343644,-0.26928642570558897,0.2440304693192832,-0.4221341210615889,0.7100048943048533,-1.7781570549443386,0
188,-1.7423402630489158,-0.4332041769303405,-0.4892854704943855,0.16590822361329494,2.0285396573771157,-1.2561118303926588,0
189,-3.8309267594861134,-0.5039424921910219,1.7882486770497732,0.8946786507744758,0.32353780857677644,-0.2519539451076172,0
190,-0.991020198964558,-0.22294063294859076,-0.5234901957871733,0.5177284298290373,0.04568565543894345,0.333399002570666,0
191,-1.0588353116372555,-0.4063724021762889,-0.022098978690455483,-0.08874259231429006,-0.4809704711904947,-0.3113658083495062,0
192,-1.0802506103760021,-0.3112415644119242,-0.04045273372560988,0.281506291369896,0.18840062500519406,-0.05229112601602312,0
193,-1.3247419376433582,-0.3570995067188487,-0.13222150890138185,0.2027655785501823,0.09367830007184187,-0.039629581390702516,0
194,-1.2694190825682632,-0.28733689235831456,-0.2415097775198012,0.07041416764045058,0.07094494208783736,-0.004566842428276235,0
195,-1.303326638904612,-0.3219742743135448,-0.13389003208639588,0.005076129343241261,-0.07177002747841324,-0.008462702312990268,0
196,-1.3045163777234308,-0.3229499752136921,-0.1630891878241415,0.0034007950279282113,-0.047773705161964025,-0.01722838705359683,0
197,-1.2545473473330224,-0.3253892274640605,-0.15474657189907132,0.010102132289180436,-0.07303299181085793,-0.0016449475147407126,0
198,-1.2599011720177091,-0.3127051157621452,-0.16392344941664852,0.04695948722606775,-0.031355168840182975,-0.010410632255347285,0
199,-1.2515730002859744,-0.32441352656391315,-0.13889560164143802,0.05031015585669388,0.01916340445760484,-0.000670982543562205,0
200,-1.2527627391047935,-0.3234378256637658,-0.11970758501377655,0.0034007950279282113,0.024215261787383632,0.015886421966472428,0
201,-1.2747729072529497,-0.3249013770139868,-0.1489067407515222,-0.016703216755828483,0.006533761133157889,0.012964527052936905,0
202,-1.2444345673730588,-0.3224621247636185,-0.13806134004893095,-0.025079888332393798,0.009059689798047277,0.01004263213940138,0
203,-1.2420550897354203,-0.3131929662122188,-0.1589178798616064,0.01177746660449351,0.04821158410383284,0.013938492024115413,0
204,-1.2539524779236129,-0.3200228725132501,-0.16225492623163448,0.008426797973867386,0.0583152987633904,0.0373136513323996,0
205,-1.2307525709566374,-0.3488060490675964,-0.10469087634865024,0.013452800919806558,-0.2687924633397858,0.040235546245935117,0
206,-1.2575216943800709,-0.32685277881428143,-0.16642623419416958,0.015128135235119631,0.06715604909050328,0.04315744115947065,0
207,-1.2688242131588534,-0.3073387608113348,-0.18644851241433802,0.016803469550432684,0.07978569241495022,0.05289709087125572,0
208,-1.2408653509166008,-0.26635932300514703,-0.19228834356188712,0.008426797973867386,0.07725976375006084,0.03341779144768557,0
209,-1.2706088213870823,-0.31172941486199784,-0.21481340655957665,-0.011677213809889323,0.04694861977138814,0.02757400162061453,0
210,-1.277152384890588,-0.3092901626116295,-0.21731619133709767,0.005076129343241261,0.036844905111830584,0.015886421966472428,0
211,-1.2825062095752748,-0.2927032473091249,-0.18978555878436607,0.021829472496371845,0.006533761133157889,-0.008462702312990268,0
212,-1.2700139519776728,-0.2995331536101562,-0.15307804871405728,0.03355681270356328,-0.013673668185957244,-0.01917631699595385,0
213,-1.2836959483940942,-0.3107537139618505,-0.15641509508408535,0.02350480681168493,-0.031355168840182975,-0.01820235202477535,0
214,-1.2676344743400343,-0.2927032473091249,-0.20229948267197131,0.010102132289180436,-0.031355168840182975,-0.015280457111239822,0
215,-1.2515730002859744,-0.32441352656391315,-0.14640395597400113,-0.004975876548637087,-0.002306989193954985,-0.009436667284168771,0
216,-1.2938087283540578,-0.3097780130617032,-0.17977441967428187,5.0126397302087016e-05,-0.002306989193954985,-0.000670982543562205,0
217,-1.2527627391047935,-0.3229499752136921,-0.13806134004893095,0.006751463658554311,-0.008621810856178464,0.0003029824276163032,0
218,-1.256331955561251,-0.3063630599111875,-0.13389003208639588,0.031881478388250215,0.01663747579271545,-0.006514772370633253,0
219,-1.256331955561251,-0.2985574527100089,-0.16225492623163448,0.016803469550432684,-0.009884775188623152,-0.009436667284168771,0
220,-1.2474089144201068,-0.3122172653120715,-0.1347242936789029,0.005076129343241261,-0.011147739521067849,-0.009436667284168771,0
221,-1.2747729072529497,-0.3063630599111875,-0.20813931381952047,0.013452800919806558,-0.0060958821912890605,-0.01820235202477535,0
222,-1.2539524779236129,-0.3048995085609665,-0.11470201545873444,-0.0016252079180109874,-0.02251441851307012,-0.010410632255347285,0
223,-1.2509781308765646,-0.3136808166622925,-0.13889560164143802,0.021829472496371845,0.01663747579271545,-0.005540807399454745,0
224,-1.2515730002859744,-0.3131929662122188,-0.17393458852673274,0.008426797973867386,0.005270796800713201,0.00614677225468735,0
225,-1.250383261467155,-0.3078266112614085,-0.13722707845642396,0.018478803865745744,0.014111547127826066,0.0003029824276163032,0
226,-1.2545473473330224,-0.3053873590110402,-0.139729863233945,0.0017254607126151367,0.025478226119828317,0.0071207372258658575,0
227,-1.245624306191878,-0.3078266112614085,-0.1347242936789029,-0.01000187949457626,0.020426368790049537,0.015886421966472428,0
228,-1.2652549967023956,-0.3131929662122188,-0.1589178798616064,0.0017254607126151367,0.028004154784717718,0.016860386937650938,0
229,-1.237891003869553,-0.29709390135978786,-0.14390117119648008,-0.0083265451792632,0.01663747579271545,0.011990562081758398,0
230,-1.2569268249706609,-0.2995331536101562,-0.1539123103065643,-0.0016252079180109874,0.02168933312249423,0.008094702197044366,0
231,-1.2569268249706609,-0.3078266112614085,-0.14223264801146607,0.01177746660449351,0.01916340445760484,0.0071207372258658575,0
232,-1.2622806496553476,-0.3166079193627345,-0.1680947573791836,0.010102132289180436,0.001481903803379108,0.0032248773411518265,0
233,-1.2497883920577455,-0.3078266112614085,-0.2098078370045345,0.006751463658554311,0.006533761133157889,-0.000670982543562205,0
234,-1.252167869695384,-0.31855932116302915,-0.13222150890138185,0.006751463658554311,-0.0060958821912890605,0.004198842312330336,0
235,-1.2444345673730588,-0.2975817518098615,-0.16976328056419765,0.010102132289180436,0.01663747579271545,0.008094702197044366,0
236,-1.2717985602059017,-0.3102658635117768,-0.14139838641895905,-0.0083265451792632,0.01663747579271545,0.009068667168222877,0
237,-1.2527627391047935,-0.3048995085609665,-0.1205418466062836,0.010102132289180436,0.04063379810916466,0.012964527052936905,0
238,-1.2533576085142029,-0.3083144617114822,-0.16976328056419765,0.015128135235119631,0.06589308475805858,0.03439175641886407,0
239,-1.287265164850552,-0.3122172653120715,-0.21564766815208364,0.013452800919806558,0.06336715609316917,0.02173021179354348,0
240,-1.2527627391047935,-0.3024602563105982,-0.1497410023440292,-0.0083265451792632,0.06968197775539266,0.0373136513323996,0
241,-1.271203690796492,-0.28928829415860924,-0.1964596515244222,0.005076129343241261,0.08104865674739492,0.0071207372258658575,0
242,-1.2527627391047935,-0.3136808166622925,-0.19061982037687308,-0.05020990306208968,-0.009884775188623152,0.004198842312330336,0
243,-1.2801267319376364,-0.3014845554104509,-0.19729391311692926,0.01177746660449351,0.04315972677405405,-0.010410632255347285,0
244,-1.2753677766623597,-0.29514249955949323,-0.1539123103065643,-0.016703216755828483,0.054526405766056316,0.03633968636122109,0
245,-1.4026698302760194,-0.3517331517680384,-0.11219923068121343,0.06036216174857222,0.13535612304251682,0.2233409608274946,0
246,-2.045723661847825,-0.4405219336814455,0.18813494262131306,0.4674684003696457,-0.31047028631046075,0.9382312496725193,0
247,-2.162318066092112,-0.2819705374075043,0.2248424526916218,1.073939422512973,0.006533761133157889,1.8732376220038869,0
248,-2.275343253879941,0.02098459208824191,-0.12304463138380466,1.0019000469545114,-0.7019892293683163,2.5589089617135565,0
249,-1.8006374651710593,0.24539579912212794,-0.09718252201608707,0.901379988035728,-1.0253080984741585,3.0877719410634863,0
250,-1.388987833859598,0.44931728725292,-0.23066437681720994,0.7489245653422397,-2.15818710467705,3.4335295058318573,0
251,-0.5353502313567845,0.6951939140900474,-0.16559197260166256,0.7338465565044221,-3.2771735032230507,3.767599490946085,0
252,0.3813435285434493,0.5976238240753143,-0.41253340398373983,0.9198086655041716,-3.7229999125760274,3.677994713597661,0
253,1.1386122867219033,0.4693191557059404,-0.5793857224851434,1.3486942502243149,-1.896753487860998,3.357560238079933,0
254,1.6989792703857711,0.5190799016134542,-0.8063048756470523,1.1359267921795562,-1.4218788988617928,2.7176652520156535,0
255,2.258751384640229,0.5415210223168427,-0.7771057199093067,0.5813911338109335,-0.3950888965842553,1.9784258388911653,0
256,2.223059220075652,0.5756705538219994,-0.4283843742413732,-0.10046993252148144,-0.3571999666109144,1.0307579219344778,0
257,2.2771923363319275,0.6395789627816495,-0.09634826042358006,-0.14067795608899492,-0.07177002747841324,0.2915185088099902,0
258,1.8589991415169604,0.7669079302508761,0.04297342552509191,-0.09376859526022924,0.028004154784717718,-0.009436667284168771,0
259,1.8161685440394677,0.8957004490703238,0.002928869084755056,0.021829472496371845,0.08104865674739492,0.011990562081758398,0
260,1.863163227382828,0.8635023193654618,-0.07298893583338358,0.09051817942420727,0.05326344143361162,-0.007488737341811759,6
261,1.889932350806261,0.9161901679734178,-0.08300007494346777,0.03858281564950247,0.015374511460270752,-0.057160950871915674,0
262,1.8572145332887315,0.912775214822902,-0.11386775386622745,0.005076129343241261,0.08483754974472901,-0.07566628532430733,0
263,1.8357992345499852,0.9722929697318892,-0.17977441967428187,-0.01000187949457626,0.09494126440428656,-0.04060354636188103,0
264,1.8244967157712024,0.9405826904771009,-0.0880056444985099,0.045284152910754674,0.04568565543894345,-0.008462702312990268,0
265,1.8857682649403935,0.9259471769748909,-0.05296665761321514,0.07711550490170282,0.04694861977138814,-0.005540807399454745,0
266,1.8334197569123465,0.950827549928648,-0.07048615105586252,0.08549217647826811,0.054526405766056316,-0.004566842428276235,0
267,1.8262813239994309,0.961072409380195,-0.06881762787084847,0.05868682743325916,0.03937083377671997,-0.0026189124859192204,0
268,1.8197377604959248,0.9454611949778376,-0.057137965575750224,0.06873883332513753,0.014111547127826066,0.019782281851186457,0
269,1.8209274993147444,0.9347284850762171,-0.1021880915711292,0.043608818595441634,0.05705233443094571,0.0032248773411518265,0
270,1.7822609877031188,0.9439976436276166,-0.07132041264836954,-0.011677213809889323,0.05705233443094571,-0.0123585621977043,0
271,1.7888045512066246,0.9410705409271748,-0.09050842927603096,-0.031781225593646045,0.04568565543894345,-0.010410632255347285,0
272,1.8084352417171423,0.95375465262909,-0.032944379393046716,-0.026755222647706856,0.022952297454938927,0.0071207372258658575,0
273,1.7834507265219381,0.9352163355262908,-0.046292564873159005,0.021829472496371845,0.001481903803379108,0.012964527052936905,0
274,1.8209274993147444,0.9313135319257012,-0.08049729016594673,0.01177746660449351,0.01663747579271545,0.018808316880007957,0
275,1.8417479286440808,0.9264350274249648,-0.1213761081987906,0.026855475442311042,0.033056012114496484,0.009068667168222877,0
276,1.77988151006548,0.9239957751745964,-0.09551399883107303,0.03690748133418939,0.04442269110649876,0.005172807283508842,0
277,1.814978805220648,0.9376555877766591,-0.0279388098380046,0.028530809757624093,0.08104865674739492,0.019782281851186457,0
278,1.8131941969924192,0.9825378291834362,-0.04879534965068005,0.008426797973867386,0.04821158410383284,0.040235546245935117,0
279,1.8488863615569968,0.9278985787751856,-0.12471315456881868,-0.025079888332393798,0.041896762441609364,0.02075624682236497,0
280,1.7971327229383594,0.9308256814756276,-0.08216581335096076,-0.03513189422427214,0.06841901342294797,0.01491245699529392,0
281,1.8286608016370696,0.9220443733743018,-0.019596193912934427,-0.036807228539585214,0.04442269110649876,0.005172807283508842,0
282,1.7846404653407573,0.9186294202237859,-0.02960733302301864,-0.04350856580083745,0.0317930477820518,0.01004263213940138,0
283,1.8369889733688043,0.9210686724741544,-0.02376750187546952,-0.015027882440515446,0.054526405766056316,0.017834351908829447,0
284,1.806055764079504,0.9278985787751856,-0.055469442390736194,-0.0066512108639501365,0.049474548436277535,0.02075624682236497,0
285,1.8369889733688043,0.9210686724741544,-0.04045273372560988,0.013452800919806558,0.04694861977138814,0.0373136513323996,0
286,1.8197377604959248,0.906921009422018,-0.025436025060483557,0.05868682743325916,0.04694861977138814,0.04413140613064915,0
287,1.7876148123878053,0.912775214822902,-0.01792767072792039,0.041933484280128566,0.015374511460270752,0.057766915727148274,0
288,1.8131941969924192,0.9293621301254068,-0.004579485247808105,0.018478803865745744,0.04821158410383284,0.042183476188292136,0
289,1.8161685440394677,0.8864312905189241,0.0187798393423884,-0.018378551071141568,0.01158561846293667,0.041209511217113616,0
290,1.8227121075429733,0.9083845607722392,-0.022933240282962498,-0.02843055696301992,-0.013673668185957244,0.02367814173590049,0
291,1.8114095887641903,0.8752107301672298,-0.002910962062794069,0.013452800919806558,-0.02377738284551481,0.02757400162061453,0
292,1.8494812309664064,0.8854555896187768,-0.03878421054059584,0.031881478388250215,-0.026303311510404184,-0.2461101552805462,0
293,1.8352043651405756,0.8961882995203975,-0.08216581335096076,0.018478803865745744,-0.009884775188623152,0.01004263213940138,0
294,1.8708965297051532,0.9191172706738596,-0.07465745901839761,-0.0033005422333240125,-0.009884775188623152,-0.0123585621977043,0
295,1.8399633204158523,0.9469247463280588,0.022116885712416462,-0.0033005422333240125,0.0027448681358237964,0.022704176764721987,0
296,1.8239018463617929,0.9117995139227548,-0.0279388098380046,-0.0066512108639501365,-0.009884775188623152,0.04315744115947065,0
297,1.8447222756911292,0.8800892346679665,-0.02376750187546952,-0.015027882440515446,-0.003569953526399673,0.03828761630357811,0
298,1.87625035438984,0.8581359644146516,-0.07132041264836954,0.0017254607126151367,0.009059689798047277,-0.0240461418518464,0
299,1.9981985833188132,0.7361733518962352,-0.015424885950399337,0.025180141126997967,0.01158561846293667,-0.22663085585697604,0
300,2.359284314830456,0.6205527952287766,-0.17310032693422572,0.11229752552327704,0.022952297454938927,-0.7253009211003721,0
301,2.5395297458815733,0.5751827033719257,-0.3758258939134311,0.03858281564950247,0.3374304162336681,-1.6788126278841309,0
302,2.3509561430987214,0.6112836366773771,-0.3674832779883609,-0.2747047013140396,1.2669721649129642,-2.7209551470451347,0
303,1.6965997927481329,0.6317733555804709,-0.4876169473093714,-0.5327061858722508,1.682487430287269,-3.427079751149553,0
304,0.6930550990740934,0.5795733574225886,-0.34245543021315034,-0.7689283243313919,2.351858526482957,-3.705633732906605,0
305,-0.07670591670196279,0.4810275665077083,-0.6536350042182679,-0.3852767661247016,3.2245668802022416,-3.705633732906605,0
306,-1.1546092865522053,0.4283397178997525,-0.4509094372390627,-0.3802507631787624,2.3139695965096165,-3.4748040347372995,0
307,-1.5204539733391254,0.21953972526822368,-0.4383955133514574,-0.16245730218806465,1.5309317103939053,-2.864127997808375,0
308,-1.6858276691550014,0.19270795051417208,-0.7303870707289136,-0.08539192368366393,1.8239394355210747,-2.453114779971045,0
309,-2.1135387745205225,0.12050608390326965,-0.3449582149906714,-0.2428733493230915,0.5584491744114897,-1.6768646979417745,0
310,-2.0147904525585245,-0.003407930415441358,-0.5335013348972575,-0.08539192368366393,0.6759048573288465,-1.2492940755944095,0
311,-1.932698474059996,0.009276181286473941,-0.4684289306817101,-0.17753531102588216,0.21997473331631145,-0.7321186758986217,0
312,-1.7161660090348922,-0.031703256519713945,-0.5335013348972575,-0.18423664828713446,0.18587469634030465,-0.474017958536317,0
313,-1.5650691790448472,-0.039508863720892594,-0.5176503646396241,-0.1808859796565083,0.028004154784717718,-0.3678557766778596,0
314,-1.606710037703521,-0.14683596273709895,-0.5551921363024399,-0.10549593546742066,-0.01493663251840193,-0.3230533880036483,0
315,-1.571612742548353,-0.2234284833986644,-0.6244358484805224,-0.0535605716927158,0.18082283901052587,-0.24805808522290315,0
316,-1.5650691790448472,-0.2419668005014637,-0.6010765238903258,-0.04183323148552439,-0.07177002747841324,-0.13313021862383928,0
317,-1.52878214507086,-0.253187360853158,-0.5793857224851434,0.07544017058638976,0.05073751276872223,-0.050343196073666115,0
318,-1.4532337300758376,-0.2624565194045576,-0.6177617557404662,0.07376483627107669,-0.0010440248615102869,-0.010410632255347285,0
319,-1.4431209501158742,-0.24245465095153734,-0.655303527403282,0.04025814996481551,0.010322654130491963,-0.02502010682302491,0
320,-1.478218245271042,-0.23660044555065335,-0.6419553419231697,0.02350480681168493,0.0077967254656025765,-0.05326509098720164,0
321,-1.4692952041298974,-0.25221165995301065,-0.6419553419231697,-0.06863858053053333,-0.013673668185957244,-0.029889931678917438,0
322,-1.5061771075132944,-0.2448939032019057,-0.5443467355998487,-0.07366458347647252,-0.1134478504490882,0.0003029824276163032,0
323,-1.4942797193251018,-0.2585537158039683,-0.5618662290424961,0.005076129343241261,0.0305300834496071,0.024652106707079,0
324,-1.4377671254311872,-0.23855184735094806,-0.5877283384102135,0.025180141126997967,0.015374511460270752,0.042183476188292136,0
325,-1.466915726492259,-0.2629443698546313,-0.6419553419231697,0.030206144072937157,0.024215261787383632,0.0373136513323996,0
326,-1.4377671254311872,-0.2253798851989591,-0.6311099412205785,0.0201541381810588,0.05326344143361162,0.022704176764721987,0
327,-1.4710798123581263,-0.24440605275183205,-0.6110876630004101,0.006751463658554311,-0.01619959685084664,0.03439175641886407,0
328,-1.4252748678335851,-0.2405032491512427,-0.5994080007053119,0.013452800919806558,-0.0073588465237337764,0.032443826476507065,0
329,-1.4556132077134758,-0.22196493204844345,-0.5910653847802416,0.025180141126997967,-0.0060958821912890605,0.03926158127475662,0
330,-1.4258697372429947,-0.1995238113450548,-0.6044135702603539,0.016803469550432684,0.009059689798047277,0.032443826476507065,0
331,-1.4318184313370907,-0.2322097914999904,-0.5860598152251996,0.041933484280128566,0.01790044012516014,0.017834351908829447,0
332,-1.436577386612368,-0.2283069878994011,-0.5960709543352838,0.043608818595441634,0.01663747579271545,0.009068667168222877,0
333,-1.4645362488546203,-0.23074624014976935,-0.6010765238903258,0.031881478388250215,0.03937083377671997,0.004198842312330336,0
334,-1.4811925923180902,-0.21611072664755945,-0.6611433585508312,0.016803469550432684,0.01158561846293667,0.013938492024115413,0
335,-1.41754156551126,-0.2122079230469701,-0.6077506166303821,-0.0033005422333240125,-0.01872552551573604,0.028547966591793032,0
336,-1.439551733659416,-0.2112322221468228,-0.6861712063260417,0.021829472496371845,0.006533761133157889,0.0012769473987948108,0
337,-1.4550183383040665,-0.21172007259689649,-0.5935681695577627,-0.01000187949457626,-0.01241070385351254,0.004198842312330336,0
338,-1.4282492148806332,-0.21074437169674912,-0.6002422622978189,0.015128135235119631,-0.013673668185957244,0.0032248773411518265,0
339,-1.4347927783841392,-0.21854997889792774,-0.6094191398153961,0.0034007950279282113,0.0002189394709344104,0.0071207372258658575,0
340,-1.4341979089747294,-0.19757240954476016,-0.5852255536326926,-0.01000187949457626,0.009059689798047277,0.0032248773411518265,0
341,-1.4425260807064644,-0.2136714743971911,-0.6094191398153961,0.025180141126997967,0.04442269110649876,-0.004566842428276235,0
342,-1.4294389536994525,-0.21074437169674912,-0.5944024311502697,-0.011677213809889323,-0.0010440248615102869,-0.0035928774570977273,0
343,-1.4562080771228856,-0.21903782934800145,-0.5576949210799611,0.006751463658554311,0.01158561846293667,0.0071207372258658575,0
344,-1.4496645136193798,-0.2024509140454968,-0.6603090969583242,0.008426797973867386,0.012848582795381359,0.00614677225468735,0
345,-1.4919002416874632,-0.20684156809615975,-0.559363444264975,-0.04853456874677664,-0.0515625981592981,0.02660003664943601,0
346,-1.4098082631889348,-0.22391633384873807,-0.5043021791595118,-0.020053885386454636,-0.025040347177959516,0.004198842312330336,0
347,-1.3967211361819232,-0.2151350257474121,-0.5410096892298206,0.015128135235119631,0.0002189394709344104,-0.2451361903093677,0
348,-1.436577386612368,-0.20879296989645446,-0.5752144145226084,0.0201541381810588,0.03431897644694118,-0.0123585621977043,0
349,-1.4407414724782357,-0.20586586719601246,-0.6277728948505504,0.03523214701887633,0.01790044012516014,-0.004566842428276235,0
350,-1.4419312112970546,-0.21074437169674912,-0.5835570304476785,0.025180141126997967,0.01790044012516014,-0.0016449475147407126,0
351,-1.454423468894657,-0.2151350257474121,-0.5960709543352838,-0.0066512108639501365,-0.01872552551573604,-0.011384597226525793,0
352,-1.4466901665723315,-0.2136714743971911,-0.5093077487145539,0.015128135235119631,0.04694861977138814,0.012964527052936905,0
353,-1.4211107819677178,-0.2165985770976331,-0.5935681695577627,0.025180141126997967,0.025478226119828317,0.005172807283508842,0
354,-1.4526388606664282,-0.2283069878994011,-0.6035793086678469,0.025180141126997967,0.026741190452273016,0.0032248773411518265,0
355,-1.4425260807064644,-0.21854997889792774,-0.559363444264975,0.005076129343241261,0.005270796800713201,0.0071207372258658575,0
356,-1.404454438504248,-0.20635371764608607,-0.5827227688551715,0.008426797973867386,0.028004154784717718,0.009068667168222877,0
357,-1.3949365279536945,-0.20049951224520213,-0.6077506166303821,-0.020053885386454636,0.0305300834496071,-0.0026189124859192204,0
358,-1.4484747748005606,-0.2053780167459388,-0.5877283384102135,-0.0033005422333240125,0.01158561846293667,-0.004566842428276235,0
359,-1.468700334720488,-0.22147708159836976,-0.5543578747099329,5.0126397302087016e-05,-0.003569953526399673,0.016860386937650938,0
360,-1.441336341887645,-0.2322097914999904,-0.5485180435623838,0.013452800919806558,0.001481903803379108,0.032443826476507065,0
361,-1.4211107819677178,-0.2083051194463808,-0.6119219245929172,0.016803469550432684,0.01916340445760484,0.018808316880007957,0
362,-1.4109980020077542,-0.17952194289203455,-0.6227673252955084,-0.0066512108639501365,-0.008621810856178464,0.016860386937650938,0
363,-1.441336341887645,-0.17513128884137155,-0.5977394775202978,-0.0569112403233419,-0.01493663251840193,-0.0026189124859192204,0
364,-1.4562080771228856,-0.2175742779977804,-0.5551921363024399,-0.02843055696301992,-0.017462561183291328,0.008094702197044366,0
365,-1.422300520786537,-0.2526995104030843,-0.5393411660448065,0.0486348215413808,-0.01493663251840193,0.00614677225468735,0
366,-1.398505744410152,-0.24586960410205305,-0.5134790566770889,0.07041416764045058,-0.026303311510404184,-0.010410632255347285,0
367,-1.4347927783841392,-0.2083051194463808,-0.5952366927427768,0.10392085394671176,0.060841227428279784,-0.011384597226525793,0
368,-1.4609670323981627,-0.16830138254034024,-0.5685403217825522,-0.0066512108639501365,0.03937083377671997,0.02660003664943601,0
369,-1.5121258016073906,-0.1756191392914452,-0.5693745833750592,-0.04183323148552439,0.05073751276872223,0.061662775611862286,0
370,-2.024308363109079,-0.23855184735094806,-0.5401754276373136,-0.12559994725117732,-0.0073588465237337764,0.5272180318351891,0
371,-2.2021743165225565,-0.135127551935331,-0.5126447950845819,-0.21439266596276954,-0.13239231543575866,1.0521851513004048,0
372,-2.664387847633836,0.00098272363522163,-0.2765487644050959,-0.15743129924212546,-0.5870594751158489,1.8810293417733148,0
373,-2.952304641788096,0.012203283986915931,-0.02376750187546952,0.051985490172006925,-1.1187674590750656,3.0614748868416664,0
374,-2.4698655507568885,0.07074533799575577,-0.007916531617836177,0.4590917287930804,-3.3782106498186257,4.239972501967661,0
375,-0.9553280343999804,0.032205152439936206,-0.5209874110096522,1.1493294667020606,-4.139778142282776,4.7464342869804845,0
376,0.3046053747296075,0.031717301989862536,-1.0816112011743682,1.5614617082690732,-4.4289969744126125,4.6081312610731375,0
377,0.9964384978730026,0.26881262072566386,-1.6989647796295615,1.6050204004672128,-2.434776293482438,4.274061275958908,0
378,2.08207517004557,0.4127285034973952,-1.5279411531656228,0.6902878643062825,-1.0669859214448332,3.7335107169548376,0
379,3.035055963919792,0.2897901900788315,-0.8747143262326278,-0.4338614612687802,-0.5188594011638354,2.536507767376451,0
380,3.3170240639799533,0.1756331847615938,-0.2281615920396889,-0.8945783979798715,-0.9242709518785828,0.8379128576411331,6
381,2.1147929875631,0.5478630781678004,0.4075457414506588,-0.19428865417901275,0.14545983770207438,-0.1496876231338739,0
382,1.89171695903449,0.7654443789006552,-0.20563652904199944,-0.12224927862055125,-0.11471081478153287,0.05679295075596976,0
383,2.1243108981136536,0.6898275591392371,-0.17560311171174678,0.01177746660449351,-0.09829227845975183,0.1921740817497824,0
384,2.2064028766121817,0.7029995212912261,-0.1630891878241415,0.06371283037919835,0.020426368790049537,0.06848053041011185,0
385,2.169520973228785,0.7025116708411523,-0.1822772044518029,0.06371283037919835,-0.0060958821912890605,0.07237639029482587,0
386,2.1290698533889305,0.7273920437949093,-0.1630891878241415,0.07376483627107669,0.028004154784717718,0.05484502081361274,0
387,2.1582184544500023,0.7069023248918154,-0.08717138290600288,0.07376483627107669,0.01790044012516014,0.042183476188292136,0
388,2.133233939254798,0.7961789572552961,-0.21731619133709767,0.03355681270356328,0.001481903803379108,0.02952193156297154,0
389,2.163572279134689,0.7225135392941726,-0.13889560164143802,0.006751463658554311,0.015374511460270752,0.017834351908829447,0
390,2.1457261968524004,0.7337340996458669,-0.17810589648926786,-0.03010589127833298,0.0317930477820518,-0.01820235202477535,0
391,2.1403723721677137,0.7405640059468982,-0.16475771100915554,-0.055235906008028864,0.024215261787383632,0.0003029824276163032,0
392,2.1736850590946526,0.7220256888440989,-0.1580836182690994,-0.031781225593646045,0.012848582795381359,-0.0016449475147407126,0
393,2.1344236780736168,0.7420275572971192,-0.1580836182690994,-0.016703216755828483,0.0002189394709344104,0.02173021179354348,0
394,2.1790388837793397,0.7400761554968246,-0.13722707845642396,0.0034007950279282113,-0.002306989193954985,0.00614677225468735,0
395,2.1516748909464964,0.7269041933448356,-0.139729863233945,0.03858281564950247,0.0305300834496071,0.02367814173590049,0
396,2.1445364580335813,0.7269041933448356,-0.1580836182690994,0.03690748133418939,0.0583152987633904,0.017834351908829447,0
397,2.1385877639394852,0.7542238185489608,-0.14306690960397306,0.03523214701887633,0.08610051407717371,0.017834351908829447,0
398,2.1475108050806293,0.7337340996458669,-0.1347242936789029,0.0653881646945114,0.036844905111830584,0.011990562081758398,0
399,2.118957073428967,0.7439789590974139,-0.14139838641895905,0.08716751079358116,0.07978569241495022,0.022704176764721987,0
400,2.1469159356712195,0.719098586143657,-0.08466859812848182,0.051985490172006925,0.0595782630958351,0.018808316880007957,0
401,2.135018547483027,0.7371490527963825,-0.0880056444985099,0.015128135235119631,0.03431897644694118,0.015886421966472428,0
402,2.1421569803959426,0.7498331644982978,-0.1205418466062836,-0.0033005422333240125,0.05326344143361162,0.017834351908829447,0
403,2.16178767090646,0.7361733518962352,-0.14306690960397306,-0.025079888332393798,0.05200047710116692,0.02660003664943601,0
404,2.1445364580335813,0.7366612023463089,-0.1722660653417187,0.013452800919806558,0.1126227650585123,0.02660003664943601,0
405,2.115387856972509,0.714707932092994,-0.1163705386437485,0.018478803865745744,0.062104191760724486,0.02562607167825751,0
406,2.1278801145701114,0.7176350347934359,-0.1255474161613257,0.015128135235119631,0.033056012114496484,0.02075624682236497,0
407,2.1546492379935445,0.7342219500959406,-0.12221036979129762,0.018478803865745744,0.01790044012516014,0.00614677225468735,0
408,2.1290698533889305,0.7093415771421837,-0.08133155175845375,0.01177746660449351,0.04315972677405405,0.01491245699529392,0
409,2.1356134168924368,0.7176350347934359,-0.08300007494346777,-0.0016252079180109874,0.006533761133157889,0.009068667168222877,0
410,2.111223771106642,0.7122686798426257,-0.10552513794115727,0.0201541381810588,0.01916340445760484,0.008094702197044366,0
411,2.1475108050806293,0.719098586143657,-0.10385661475614323,0.015128135235119631,0.025478226119828317,0.0012769473987948108,0
412,2.0880238641396667,0.7122686798426257,-0.1305529857163678,0.0201541381810588,0.026741190452273016,0.0022509123699733192,0
413,2.1231211592948345,0.7420275572971192,-0.0738231974258906,0.016803469550432684,0.020426368790049537,-0.004566842428276235,0
414,2.132044200435979,0.7273920437949093,-0.06297779672329935,0.018478803865745744,-0.0010440248615102869,-0.008462702312990268,0
415,2.133233939254798,0.7308069969454252,-0.11720480023625553,0.005076129343241261,-0.003569953526399673,-0.0035928774570977273,0
416,2.142751849805352,0.7166593338932886,-0.1030223531636362,0.015128135235119631,-0.00483291785884438,-0.007488737341811759,0
417,2.1588133238594116,0.7103172780423309,-0.1113649690887064,0.010102132289180436,0.01158561846293667,-0.01625442208241833,0
418,2.1106289016972317,0.7269041933448356,-0.12387889297631165,0.04025814996481551,0.015374511460270752,-0.011384597226525793,0
419,2.136208286301846,0.7195864365937307,-0.11803906182876253,0.03690748133418939,0.024215261787383632,-0.029889931678917438,0
420,2.1266903757512923,0.7405640059468982,-0.11553627705124148,0.031881478388250215,0.001481903803379108,-0.011384597226525793,0
421,2.1439415886241715,0.7283677446950566,-0.1030223531636362,0.021829472496371845,0.03558194077938588,-0.02696803676538192,0
422,2.109439162878413,0.7405640059468982,-0.11553627705124148,0.030206144072937157,0.01158561846293667,-0.010410632255347285,0
423,2.133828808664208,0.7337340996458669,-0.09301121405355198,0.01177746660449351,0.029267119117162406,-0.0240461418518464,0
424,2.095757166461992,0.7078780257919627,-0.12805020093884675,-0.0033005422333240125,0.012848582795381359,-0.029889931678917438,0
425,2.131449331026569,0.7630051266502869,-0.08133155175845375,0.006751463658554311,-0.003569953526399673,-0.034759756534809984,0
426,2.086834125320847,0.7430032581972665,-0.08883990609101691,0.043608818595441634,0.05705233443094571,-0.031837861621274464,0
427,2.1124135099254606,0.7112929789424783,-0.05630370398324321,0.07544017058638976,0.04694861977138814,-0.0630047406989867,0
428,2.08207517004557,0.7913004527545594,-0.1347242936789029,0.051985490172006925,0.05326344143361162,-0.0630047406989867,0
429,2.1040853381937263,0.7922761536547067,-0.1071936611261713,-0.015027882440515446,0.07220790642028206,-0.015280457111239822,0
430,2.118957073428967,0.7478817626980032,-0.11053070749619938,-0.03848256285489827,0.03431897644694118,-0.02696803676538192,0
431,2.095162297052582,0.707390175341889,-0.043789780095637935,0.05868682743325916,0.0317930477820518,-0.0240461418518464,0
432,2.1326390698453883,0.6366518600812076,-0.022933240282962498,0.17428489518986026,0.05073751276872223,-0.1272864287967682,0
433,2.1136032487442806,0.5722556006714837,-0.279051549182617,0.2982596345230266,-0.07934781347308141,-0.3610380218796101,0
434,2.3539304901457694,0.3937023359445222,-0.5652032754125241,0.051985490172006925,0.10757090772873354,-0.9473649345290718,0
435,2.46398133088655,0.6029901790261246,-0.65029795784824,-0.4690434818903545,0.6544344636772865,-1.69926589227888,0
436,2.349766404279902,0.5942088709247987,-0.6344469875906066,-0.9800204480608375,1.3111759165485286,-2.447270990143974,0
437,2.057090654850366,0.5820126096729571,-0.4450696060915135,-1.2480739385109272,2.0399063363691177,-3.1378121547095352,0
438,1.3604985764316941,0.6615322330349644,-0.14223264801146607,-1.2815806248171886,2.4402660297540857,-3.717321312560748,0
439,0.5717017395545296,0.39126308369415386,-0.004579485247808105,-1.10734585602463,2.556458748338998,-3.950098940672412,0
440,-0.34856123680216194,0.2658855180252219,-0.2982395658102784,-0.7002396174035567,3.5895635722787587,-4.147813829821648,0
441,-1.9624419445304773,-0.09317241322899578,-0.08466859812848182,-0.2663280297374743,2.3177584895069505,-3.6335603250393964,0
442,-1.5686383955013048,-0.13561540238540465,-0.8438466473098681,-0.2713540326834135,2.6751773955887996,-2.790106659998808,0
443,-2.2664202127387965,-0.10927147808142673,-0.2707089332575468,-0.4221341210615889,1.1040497660275979,-1.8745795870910111,0
444,-2.1397130285345463,-0.20001166179512847,-0.4976280864194557,-0.35009474550312725,0.9449162601395668,-1.1781946326983779,0
445,-1.9814777656315856,-0.1546415699382776,-0.2381727311497731,-0.20936666301683032,0.3980527041910135,-0.7681553798322265,0
446,-2.0707081770430293,-0.1629350275895299,-0.22148749929963274,-0.09041792662960313,0.36521563154745146,-0.3834392162167158,0
447,-1.8541757120179256,-0.2600172671541893,-0.371654585950896,0.0653881646945114,-0.026303311510404184,0.08795982983368203,0
448,-1.280721601347046,-0.254650912203379,-0.6452923882931978,-0.03848256285489827,-0.07177002747841324,0.13276221850789338,0
449,-1.2908343813070096,-0.2809948365073569,-0.6911767758810838,-0.14067795608899492,-0.01872552551573604,-0.010410632255347285,0
450,-1.5293770144802696,-0.3288041806145761,-0.39584817213359946,0.005076129343241261,-0.06924409881352385,0.018808316880007957,0
451,-1.4300338231088618,-0.2912396959589039,-0.4066935728361907,0.16590822361329494,0.06715604909050328,0.0976994795454671,0
452,-1.398505744410152,-0.2902639950587565,-0.5093077487145539,0.18433690108173856,0.08862644274206309,0.07724621515071843,0
453,-1.341398281106828,-0.2141593248472648,-0.6044135702603539,0.167583557928608,0.12777833704784866,0.02173021179354348,0
454,-1.3574597551608878,-0.2170864275477068,-0.5610319674499891,0.11062219120796403,0.1189375867207358,-0.08151007515137836,0
455,-1.4639413794452107,-0.23367334285021135,-0.5877283384102135,0.06036216174857222,0.14924873069940847,-0.09124972486316343,0
456,-1.6192022953011231,-0.24245465095153734,-0.5652032754125241,0.0570114931179461,0.028004154784717718,0.0022509123699733192,0
457,-1.4324133007465008,-0.250260258152716,-0.6519664810332539,0.05366082448731999,0.3702674888772302,0.06848053041011185,0
458,-1.3604341022079358,-0.23367334285021135,-0.5718773681525803,0.06706349900982446,0.05073751276872223,0.017834351908829447,0
459,-1.4675105959016683,-0.22781913744932736,-0.5610319674499891,0.07208950195576364,0.0583152987633904,0.005172807283508842,0
460,-1.4698900735393068,-0.22391633384873807,-0.6761600672159574,0.0486348215413808,0.08231162107983962,0.0373136513323996,0
461,-1.4805977229086804,-0.24391820230175834,-0.6528007426257609,0.031881478388250215,0.08483754974472901,0.03439175641886407,0
462,-1.482382331136909,-0.2326976419500641,-0.6261043716655365,-0.011677213809889323,-0.03893295483485116,0.0373136513323996,0
463,-1.4318184313370907,-0.21952567979807508,-0.5935681695577627,0.010102132289180436,-0.0010440248615102869,0.03341779144768557,0
464,-1.4984438051909692,-0.21903782934800145,-0.6286071564430574,0.018478803865745744,-0.03514406183751707,0.02757400162061453,0
465,-1.4936848499156918,-0.2175742779977804,-0.6636461433283523,0.008426797973867386,0.049474548436277535,0.03828761630357811,0
466,-1.468105465311078,-0.17366773749115055,-0.6219330637030013,-0.08706725799897701,-0.1222886007762011,0.07919414509307544,0
467,-1.52878214507086,-0.2083051194463808,-0.6269386332580434,-0.0820412550530378,-0.2359553906962237,0.10549119931489516,0
468,-1.500228413419198,-0.1868396996431395,-0.5860598152251996,-0.08706725799897701,-0.1134478504490882,0.13957997330614294,0
469,-1.4728644205863552,-0.1770826906416662,-0.5026336559744978,-0.026755222647706856,-0.05408852682418749,0.19022615180742533,0
470,-1.506771976922704,-0.1507387663376883,-0.6152589709629452,0.008426797973867386,0.06336715609316917,0.2447681901934218,0
471,-1.4627516406263916,-0.12439484203371035,-0.6669831896983803,-0.2244446718546479,-0.04272184783218524,0.3324250375994875,0
472,-1.3991006138195616,-0.0985387681798061,-0.5535236131174258,-0.3149127248815531,0.062104191760724486,0.3762534613025204,0
473,-1.3342598481939123,-0.08878175917833278,-0.5918996463727487,-0.3484194111878142,0.30080445059277194,0.36359191667719976,0
474,-1.41754156551126,-0.06634063847494419,-0.5426782124148346,-0.35344541413375336,0.5395047094248193,0.3480084771383436,0
475,-1.3449674975632857,-0.028776153819271955,-0.6252701100730294,-0.4422381328453455,0.7415790026159708,0.3596960567924857,0
476,-1.2979728142199252,-0.0380453123706716,-0.5818885072626645,-0.2964840474131094,1.033323763410695,0.21067941620217398,0
477,-1.2367012650507336,-0.04341166732148191,-0.5485180435623838,0.15083021477547742,1.5625058187050231,0.08601189989132499,0
478,-1.33782906465037,-0.006822883565957015,-1.064091707731721,0.3971043591264971,0.9739644397857948,-0.05229112601602312,0
479,-1.837519368554456,0.005861228135958282,-1.5629801400509176,0.3485196639824184,0.5192972801057042,0.05289709087125572,0
480,-1.6501355045904238,-0.026336901568903632,-1.3218785398163893,0.224544924649252,0.033056012114496484,-0.022098211909489383,0
481,-1.5466282273531489,-0.002432229515294027,-1.2251041950855752,0.14412887751422518,-0.09702931412730716,-0.09222368983434197,0
482,-1.723304441947808,0.02586309658897856,-1.083279724359382,0.2446489364330087,0.1088338720611782,-0.1506615881050524,0
483,-1.5995716047906057,0.001470574085295295,-1.3886194672169507,0.13910287456828602,-0.06166631281885567,-0.19643794175044227,0
484,-1.553171790856655,-0.03755746192059793,-1.2409551653432085,0.4004550277571233,0.18082283901052587,-0.17890657226922912,0
485,-1.630504814079906,-0.07658549792649115,-1.1917337313852945,0.5713391279190554,0.329852630239,-0.1720888174709796,0
486,-1.7268736584042657,-0.06292568532442852,-1.3836138976619086,0.5143777611984113,0.0595782630958351,-0.12826039376794673,0
487,-1.5644743096354377,-0.06975559162545984,-1.4553603946175122,0.5931184740181251,0.0077967254656025765,-0.18377639712512164,0
488,-1.7274685278136752,-0.08097615197715415,-1.595516342158691,0.5244297670902897,0.14419687336962972,-0.13215625365266076,0
489,-1.6840430609267725,-0.06487708712472319,-1.6063617428612824,0.4590917287930804,0.2540747702923182,-0.12826039376794673,0
490,-1.7893349463922763,-0.09170886187877478,-1.6222127131189157,0.4054810307030625,0.30080445059277194,-0.04547337121777357,0
491,-1.5745870895954013,-0.13561540238540465,-1.5621458784584106,0.4038056963877493,0.3765823105394537,-0.07469232035312881,0
492,-1.6751200197856282,-0.11366213213208973,-1.7573630911050526,0.14412887751422518,0.2970155575954378,-0.04449940624659507,0
493,-1.9338882128788155,0.05562197404347215,-1.5804996334935648,0.2731296197933307,0.3816341678692324,0.0743243202371829,0
494,-1.6364535081740024,-0.10488082403076374,-1.7098101803321526,0.14580421182953826,0.5710788177359368,0.011016597110579887,0
495,-2.1504206779039188,-0.043899517771555575,-1.962591442861779,0.04695948722606775,0.7390530739510812,0.20483562637510294,0
496,-1.4996335440097883,-0.18391259694269751,-1.922546886421442,0.25302560800957397,1.133097945673826,-0.08443197006491389,0
497,-1.5680435260918957,-0.0814640024272278,-1.8883421611286544,0.19103823834299086,0.9247088308204516,-0.12144263896969715,0
498,-1.6953455797055554,-0.1658621302899719,-2.2245495829089825,0.3183636463067833,1.1368868386711604,-0.14189590336444582,0
499,-1.7661350394253008,-0.13805465463577302,-2.2787765864219387,0.2278955932798781,0.6342270343581716,-0.07858818023784284,0
500,-1.743530001867735,-0.13854250508584665,-2.563259789466832,0.12234953141515542,0.2894377716007697,-0.03281182659245297,0
501,-1.6632226315974357,-0.06634063847494419,-2.4122584412230617,0.05366082448731999,-0.07050706314596855,-0.027942001736560418,0
502,-1.7697042558817586,-0.08878175917833278,-2.4956846004737634,-0.013352548125202384,0.1164116580558464,0.016860386937650938,0
503,-1.680473844470315,-0.06877989072531251,-2.429777934665709,-0.03848256285489827,0.29196370026565904,0.011016597110579887,0
504,-1.5359205779837757,-0.0590228817238392,-2.5882876372420425,-0.0954439295755423,0.6253862840310587,-0.006514772370633253,0
505,-1.775058080566445,-0.12829764563429968,-2.7201009688581514,-0.15240529629618632,0.8981865798391129,0.11717877896903725,0
506,-1.8868935295354552,-0.0858546564778908,-2.8018586049238388,-0.2881073758365442,0.9891200117751312,0.2983362636082397,0
507,-1.8898678765825032,-0.07658549792649115,-3.0070869566805656,-0.3903027690706407,1.0409015494053633,0.5038428725269049,0
508,-2.0992619086946918,0.05074346954273549,-3.0237721885307063,-0.6198235702685299,0.6961122866479615,0.7259068859556046,0
509,-2.002298194960922,0.16392477395982585,-3.5076439121847764,-1.0085011314211596,0.4649898138105824,0.9986170778855871,0
510,-1.9564932504363808,0.2624705648747062,-3.3257748850182463,-1.296658633655006,-0.02377738284551481,1.2206810913142867,0
511,-2.0153853219679343,0.29613224592978915,-3.6528054292809977,-1.7892069223570448,-1.418090005864459,1.442745104742987,0
512,-1.8601244061120221,0.3410144873365664,-3.139734549889181,-2.5883413907613746,-5.1665681445603155,1.8557062525226744,0
513,-1.1605579806463016,0.5078593412617599,-2.1252724534006475,-2.1845858207709266,-4.339326506809038,2.2511360308211477,0
514,-1.0368251434890994,0.67958269968769,-1.1642030988325631,-1.7054402065913925,-3.3706328638239578,2.742014376295116,0
515,0.03215518521999877,0.7864219482538227,-0.793790951759447,-1.3737240121594063,-3.490614475406204,2.2745111901294326,0
516,0.07022682742221484,0.9532668021790164,-0.6661489281058732,-1.0118518000517858,-3.4438847951057494,2.194646062492795,0
517,0.43785612243736377,1.016199510238519,-0.41920749672379604,-0.9063057381870632,-3.5322922983768787,2.1712709031845105,0
518,0.830469932647717,0.931801382375775,-0.4417325597214855,-0.6198235702685299,-3.0675214240372304,1.95602464455406,0
519,0.5925221688838666,0.804960265356622,-0.11803906182876253,-0.3149127248815531,-2.394361434844208,1.799216284194321,0
520,1.8084352417171423,0.8610630671150936,-0.16225492623163448,0.005076129343241261,-1.3877788618857858,1.438849244858272,6
521,1.8108147193547808,0.8991154022208394,0.020448362527402432,-0.09041792662960313,-1.1579193533808514,1.0784822055222243,0
522,2.074341867723245,0.8898462436694399,-0.00624800843282214,0.05533615880263304,-0.1387071370979821,0.7190891311573552,0
523,2.0035524080034994,0.9161901679734178,-0.0020767004702870514,0.04025814996481551,0.024215261787383632,0.4171599900920177,0
524,1.9625064187542356,0.9191172706738596,-0.047961088058173035,0.06873883332513753,0.18840062500519406,0.2009397664903889,0
525,1.8066506334889132,0.9000911031209868,-0.1680947573791836,0.028530809757624093,0.3715304532096749,0.1132829190843232,0
526,1.763225166602011,0.8810649355681138,-0.03628142576307478,-0.025079888332393798,0.2717562709465439,0.07237639029482587,0
527,1.7239637855809753,0.9342406346261434,-0.04962961124318707,-0.025079888332393798,0.2452340199652053,0.09380361966075304,0
528,1.7602508195549629,0.8966761499704712,-0.016259147542906357,0.0938688480548334,0.2869118429358803,0.06068881064068379,0
529,1.7352663043597585,0.9025303553713552,-0.015424885950399337,0.1642328892979819,0.30080445059277194,0.0373136513323996,0
530,1.7049279644798674,0.9005789535710604,-0.05797222716825725,0.15753155203672964,0.3475341308932257,-0.0123585621977043,0
531,1.7727430771525647,0.9371677373265852,0.08051519718790771,0.03355681270356328,0.3576378455527832,-0.05229112601602312,0
532,1.6983844009763611,0.9352163355262908,0.03045950163748665,-0.031781225593646045,0.31974891557944235,-0.07177042543959328,0
533,1.5984463401955442,0.9630238111804896,0.07217258126283754,-0.08874259231429006,0.3412193092310022,-0.03865561641952401,0
534,1.6109385977931463,0.9810742778332152,0.1272338463683007,-0.07366458347647252,0.2326043766407583,-0.007488737341811759,0
535,1.54133887689222,0.9693658670314472,0.0563216110052042,-0.1105219384133598,0.288174807268325,0.031469861505328565,0
536,1.5484773098051356,0.9488761481283532,0.20732295924897445,-0.16245730218806465,0.2578636632896523,0.05971484566950529,0
537,1.5288466192946182,0.9571696057796056,0.21149426721150952,-0.20601599438620424,0.09620422873673128,0.12497049873846533,0
538,1.5621593062215569,0.9532668021790164,0.2423619461342692,-0.21439266596276954,-0.11218488611664347,0.0976994795454671,0
539,1.5919027766920384,0.8688686743162722,0.2715611018720148,-0.058586574638654985,0.18461173200786,0.11912670891139425,0
540,1.5811951273226652,0.8961882995203975,0.26822405550198675,0.041933484280128566,0.2250265906460902,0.1113349891419662,0
541,1.5526413956710032,0.8986275517707658,0.2590471779844095,0.06203749606388528,0.03431897644694118,0.1113349891419662,0
542,1.5853592131885326,0.9152144670732704,0.18062658828874986,0.08716751079358116,0.04694861977138814,0.12691842868082231,0
543,1.6942203151104942,0.8425247500122943,0.3091028735348306,0.14747954614485131,0.062104191760724486,0.08795982983368203,0
544,1.5817899967320748,0.8693565247663458,0.140582031848413,0.12234953141515542,0.12020055105318048,0.06945449538129035,0
545,1.5996360790143636,0.8678929734161249,0.2707268402795078,0.07879083921701588,0.07094494208783736,0.24866405007813586,0
546,1.5377696604357625,0.9059453085218708,0.21649983676655166,0.03355681270356328,0.015374511460270752,0.016860386937650938,0
547,1.6442512847200854,0.8581359644146516,0.3040973039797885,0.05031015585669388,-0.06545520581618976,-0.02112424693831087,0
548,1.5984463401955442,0.9396069895769537,0.20064886650891828,-0.016703216755828483,0.026741190452273016,0.0012769473987948108,0
549,1.6841075351505304,0.8649658707156829,0.2215054063215937,-0.0083265451792632,-0.08439967080286018,-0.02112424693831087,0
550,1.5704874779532918,0.921556522924228,0.20315165128643933,0.010102132289180436,0.033056012114496484,-0.0016449475147407126,0
551,1.62105137775311,0.9054574580717972,0.2306822838391709,-0.03848256285489827,-0.04524777649707463,-0.007488737341811759,0
552,1.5383645298451718,0.9113116634726812,0.17979232669624284,-0.04183323148552439,-0.041458883499740536,-0.004566842428276235,0
553,1.6115334672025559,0.8805770851180402,0.2215054063215937,-0.0535605716927158,-0.09576634979486247,0.0003029824276163032,0
554,1.5954719931484962,0.8791135337678192,0.24486473091179026,-0.04015789717021133,0.020426368790049537,-0.004566842428276235,0
555,1.603800164880231,0.9020425049212816,0.17895806510373582,-0.011677213809889323,0.025478226119828317,0.013938492024115413,0
556,1.6186719001154717,0.8864312905189241,0.13974777025590598,0.01177746660449351,-0.00483291785884438,0.019782281851186457,0
557,1.6412769376730374,0.8825284869183349,0.18312937306627086,-0.004975876548637087,0.009059689798047277,0.0003029824276163032,0
558,1.6180770307060617,0.8835041878184822,0.2148313135815376,-0.015027882440515446,0.006533761133157889,0.02173021179354348,0
559,1.6127232060213752,0.8713079265666406,0.20899148243398846,-0.025079888332393798,-0.009884775188623152,0.0071207372258658575,0
560,1.6109385977931463,0.8781378328676719,0.14308481662593406,-0.04350856580083745,0.01916340445760484,0.02367814173590049,0
561,1.6264052024377966,0.9225322238243754,0.18146084988125688,-0.02172921970176767,0.010322654130491963,0.031469861505328565,0
562,1.649605109404772,0.8639901698155356,0.18146084988125688,0.01177746660449351,0.020426368790049537,0.04802726601536318,0
563,1.6394923294448085,0.8805770851180402,0.12556532318328667,0.03523214701887633,0.020426368790049537,0.0499751959577202,0
564,1.6841075351505304,0.8586238148647253,0.16310709484610247,0.03523214701887633,0.03810786944427527,0.03049589653415005,0
565,1.6371128518071698,0.8732593283669352,0.23318506861669197,0.051985490172006925,0.05200047710116692,0.024652106707079,0
566,1.6793485798752534,0.8469154040629573,0.1914719889913411,-0.025079888332393798,0.015374511460270752,-0.0016449475147407126,0
567,1.6264052024377966,0.8513060581136203,0.24152768454176216,-0.07701525210709864,0.0077967254656025765,-0.03378579156363147,0
568,1.6501999788141817,0.8386219464117051,0.186466419436299,-0.06361257758459417,0.025478226119828317,-0.04547337121777357,0
569,1.6876767516069882,0.8639901698155356,0.1581015252910604,-0.03513189422427214,0.04063379810916466,-0.04255147630423805,0
570,1.5865489520073517,0.8771621319675246,0.14642186299596213,0.031881478388250215,0.06715604909050328,-0.04644733618895208,0
571,1.603800164880231,0.8483789554131783,0.20231738969393231,0.07879083921701588,0.07725976375006084,-0.059108880814272666,0
572,1.6246205942095675,0.8693565247663458,0.2532073468368604,0.06706349900982446,0.07220790642028206,-0.05229112601602312,0
573,1.5502619180333643,0.8966761499704712,0.2515388236518464,0.06706349900982446,0.022952297454938927,-0.03865561641952401,0
574,1.5817899967320748,0.9054574580717972,0.2582129163919025,0.07041416764045058,0.0305300834496071,-0.03865561641952401,0
575,1.5538311344898224,0.8776499824175982,0.10637730655562527,-0.016703216755828483,-0.02251441851307012,-0.039629581390702516,0
576,1.5556157427180513,0.8796013842178928,0.2365221149867201,-0.004975876548637087,-0.030092204507738283,-0.05618698590073716,0
577,1.5847643437791228,0.8522817590137676,0.2940861648697043,0.021829472496371845,-0.07303299181085793,-0.09611954971905597,0
578,1.6858921433787593,0.8098387698573587,0.2882463337221552,0.05868682743325916,-0.18164792440110172,0.0022509123699733192,0
579,1.7775020324278417,0.5981116745253879,-0.022098978690455483,0.013452800919806558,-0.18543681739843587,-0.5977115098759876,0
580,1.9452552058813564,0.6590929807845961,0.10220599859309018,-0.25795135816090903,0.3525859882230045,-1.1596892982459868,0
581,1.9244347765520196,0.7171471843433623,0.17979232669624284,-0.6214989045838429,0.6935863579830722,-1.9544447147276491,0
582,1.5151646228781963,0.8674051229660512,-0.030441594615525664,-0.6349015791063473,1.2897055228969685,-2.5758343663395373,0
583,1.0725817822774348,0.7459303608977086,0.06466422693027438,-0.5896675525928948,2.0373804077042283,-3.147551804421321,0
584,0.7828803798949469,0.6410425141318705,-0.13806134004893095,-0.10214526683679452,3.2081483438804614,-3.257609846164492,0
585,-0.3146536804658132,0.4307789701501208,-0.3624777084333188,0.3820263502886797,3.683022932879666,-3.2585838111356713,0
586,-0.7120264459514435,0.4283397178997525,-0.8672059719000645,0.8427432869997709,3.7310155775125646,-2.941071230531478,0
587,-1.7125967925784344,0.20880701536660304,-0.6252701100730294,0.9600166890716852,2.4882586743869837,-2.4336354805474745,0
588,-2.56266517862479,0.1492892604576159,-1.3869509440319367,0.7556259026034918,1.7355319322499458,-1.6495936787487762,0
589,-2.0647594829489333,0.2873509378284632,-1.0549148302141436,0.5261051014056027,0.8224087198924309,-1.1139129446005966,0
590,-1.977313679765718,0.105382719950986,-1.3669286658117683,0.3217143149374095,1.2202424846125104,-0.7671814148610481,0
591,-1.659653415140978,0.039522909191041185,-1.3368952484815158,0.42055903954088003,1.1545683393253865,-0.5977115098759876,0
592,-1.8155092004063,-0.04097241507111359,-1.4395094243598792,0.1642328892979819,0.5268750661003725,-0.4652522737957105,0
593,-1.7786272970229031,-0.07658549792649115,-1.7640371838451088,0.0486348215413808,0.1126227650585123,-0.35909009193725294,0
594,-1.9820726350409952,-0.132200449234889,-1.4203214077322175,0.1189988627845293,0.06968197775539266,0.04802726601536318,0
595,-1.4978489357815594,-0.0380453123706716,-1.6847823325569422,0.0034007950279282113,-0.25742578434778346,-0.031837861621274464,0
596,-1.7512633041900605,-0.10732007628113206,-1.4954049510578493,-0.11554794135929901,-0.12607749377353514,-0.14384383330680287,0
597,-1.7459094795053736,-0.09463596457921676,-1.3552490035166698,-0.12895061588180348,-0.21827389004199796,-0.0493692311024876,0
598,-1.6186074258917136,-0.127809795184226,-1.3243813245939104,-0.0535605716927158,-0.14754788742509498,-0.0493692311024876,0
599,-1.6798789750609049,-0.11073502943164773,-1.3393980332590367,0.03523214701887633,-0.0515625981592981,-0.04547337121777357,0
600,-1.6090895153411595,-0.10878362763135306,-1.3836138976619086,0.04025814996481551,-0.08818856380019427,-0.02696803676538192,0
601,-1.6757148891950375,-0.12634624383400506,-1.356917526701684,0.0486348215413808,-0.0502996338268534,-0.028915966707738938,0
602,-1.65608419868452,-0.14293315913650964,-1.3202100166313753,-0.020053885386454636,-0.1728071740739889,-0.005540807399454745,0
603,-1.6537047210468816,-0.12195558978334205,-1.3235470630014037,0.028530809757624093,-0.06166631281885567,-0.02502010682302491,0
604,-1.5829152613271358,-0.13415185103518365,-1.1833911154602244,0.07376483627107669,-0.07177002747841324,0.009068667168222877,0
605,-1.6548944598657007,-0.127809795184226,-1.3110331391137982,0.043608818595441634,0.01790044012516014,-0.008462702312990268,0
606,-1.6245561199858098,-0.12097988888319468,-1.3335582021114876,0.05031015585669388,0.01916340445760484,-0.014306492140061315,0
607,-1.616822817663485,-0.11658923483253172,-1.3435693412215717,0.030206144072937157,0.0077967254656025765,-0.004566842428276235,0
608,-1.637048377583412,-0.11219858078186873,-1.3035247847812352,0.021829472496371845,-0.011147739521067849,-0.005540807399454745,0
609,-1.6412124634492793,-0.13024904743459434,-1.3377295100740227,0.0017254607126151367,-0.04903666949440872,-0.0016449475147407126,0
610,-1.6679815868727126,-0.11512568348231073,-1.31603870866884,-0.0569112403233419,-0.08439967080286018,0.0003029824276163032,0
611,-1.6299099446704963,-0.11463783303223705,-1.3018562615962208,-0.0703139148458464,-0.09576634979486247,-0.011384597226525793,0
612,-1.5787511754612686,-0.13171259878481534,-1.1892309466077735,-0.04015789717021133,-0.1159737791139776,-0.0123585621977043,0
613,-1.6156330788446656,-0.13415185103518365,-1.293513645671151,0.006751463658554311,-0.009884775188623152,0.0022509123699733192,0
614,-1.5888639554212325,-0.127809795184226,-1.2868395529310943,0.01177746660449351,-0.011147739521067849,0.01491245699529392,0
615,-1.6608431539597968,-0.127809795184226,-1.305193307966249,0.0201541381810588,0.004007832468268494,0.012964527052936905,0
616,-1.6429970716775082,-0.12195558978334205,-1.2334468110106451,-0.011677213809889323,-0.0528255624917428,0.02173021179354348,0
617,-1.6239612505764005,-0.08487895557774347,-1.256806135600842,-0.02340455401708073,-0.031355168840182975,0.05094916092889872,0
618,-1.6346688999457737,-0.11902848708290005,-1.1975735625328436,-0.018378551071141568,-0.01493663251840193,0.031469861505328565,0
619,-1.6239612505764005,-0.12878549608437334,-1.2809997217835454,-0.020053885386454636,-0.1096589574517541,0.012964527052936905,0
620,-1.5769665672330395,-0.1024415717803954,-1.1975735625328436,-0.011677213809889323,-0.1159737791139776,0.011990562081758398,0
621,-1.5918383024682805,-0.11951633753297372,-1.1675401452025909,0.0034007950279282113,-0.04651074082951933,0.005172807283508842,0
622,-1.6120638623882078,-0.12244344023341568,-1.1975735625328436,0.005076129343241261,-0.017462561183291328,0.01004263213940138,0
623,-1.5870793471930034,-0.11512568348231073,-1.1600317908700282,0.021829472496371845,-0.06166631281885567,-0.007488737341811759,0
624,-1.5930280412870996,-0.1097593285315004,-1.1908994697927875,0.01177746660449351,-0.03640702616996175,0.0012769473987948108,0
625,-1.5829152613271358,-0.12390699158363667,-1.163368837240056,-0.0016252079180109874,-0.008621810856178464,0.01004263213940138,0
626,-1.6061151682941115,-0.10927147808142673,-1.170042929980112,0.01177746660449351,-0.008621810856178464,0.0022509123699733192,0
627,-1.5769665672330395,-0.10585652493091108,-1.1875624234227595,-0.0083265451792632,0.036844905111830584,0.02660003664943601,0
628,-1.6215817729387618,-0.11171073033179506,-1.2009106089028718,0.006751463658554311,0.024215261787383632,0.024652106707079,0
629,-1.59243317187769,-0.12146773933326835,-1.161700314055042,0.008426797973867386,-0.056614455489076884,0.0003029824276163032,0
630,-1.5965972577435574,-0.0985387681798061,-1.1533576981299718,0.0034007950279282113,-0.021251454180625413,-0.000670982543562205,0
631,-1.5912434330588707,-0.11902848708290005,-1.124992803984733,0.01177746660449351,-0.00483291785884438,0.004198842312330336,0
632,-1.584699869555365,-0.10585652493091108,-1.1466836053899157,0.005076129343241261,-0.008621810856178464,-0.013332527168882806,0
633,-1.60849464593175,-0.11024717898157406,-1.1500206517599436,0.01177746660449351,0.009059689798047277,-0.013332527168882806,0
634,-1.6049254294752922,-0.13805465463577302,-1.1900652082002805,-0.0033005422333240125,0.0595782630958351,0.02173021179354348,0
635,-1.616822817663485,-0.11756493573267905,-1.208418963235435,0.006751463658554311,-0.03893295483485116,-0.005540807399454745,0
636,-1.5745870895954013,-0.08829390872825912,-1.1083075721345927,-0.01000187949457626,-0.04272184783218524,-0.0016449475147407126,0
637,-1.5918383024682805,-0.10780792673120572,-1.1116446185046207,0.015128135235119631,0.06968197775539266,0.02075624682236497,0
638,-1.6257458588046292,-0.12829764563429968,-1.1683744067950979,0.025180141126997967,0.001481903803379108,0.0022509123699733192,0
639,-1.5769665672330395,-0.11610138438245805,-1.1258270655772402,0.02350480681168493,-0.02756627584284889,-0.01625442208241833,0
640,-1.5680435260918957,-0.07756119882663849,-1.1291641119472682,-0.011677213809889323,0.06841901342294797,0.009068667168222877,0
641,-1.6882071467926398,-0.0873182078281118,-1.2459607348982509,-0.06193724326928113,0.2704933066140992,0.09380361966075304,0
642,-1.9172318694153456,-0.08243970332737514,-1.6689313622993087,-0.4757448191516068,-0.1980664607228828,0.2905445438388116,0
643,-2.3449429747808668,-0.1936696059441708,-1.0874510323219173,-0.5377321888181901,-1.1364489597292915,1.1534775083029698,0
644,-2.521619189375526,0.08635655239811306,-1.1049705257645648,-0.4857968250434852,-1.0985600297559508,2.069004581210768,0
645,-2.0094366278738383,0.13709299920577425,-0.8630346639375295,-0.5427581917641291,-1.420615934529348,2.496575203558132,0
646,-1.4294389536994525,0.4273640169996051,-0.514313318269596,-0.6818109399351129,-1.8803349515392171,3.1277045048818053,0
647,-0.8565797124379826,0.5990873754255353,-0.36331197002582577,-0.6449535849982257,-2.0066313847836867,3.1423139794494825,0
648,-0.28253073235769344,0.681046251037911,0.07384110444785158,-0.5193035113497462,-2.4360392578148833,3.1053033105446994,0
649,0.07498578269749186,0.6493359717831229,-0.2423440391123082,-0.1272752815664904,-3.004373207414996,2.9426511603578893,0
650,0.9101824335086068,0.7156836329931413,-0.281554333960138,0.4456890542705759,-2.9121768111465327,2.629034439638409,0
651,1.3706113563916575,0.8244742833595686,-0.4792743313843013,0.5696637936037423,-2.1291389250308224,2.146921778905048,0
652,1.6281898106660255,0.9078967103221656,-0.6327784644055926,0.532806438666855,-0.9116413085541356,1.6083191498433331,0
653,1.8482914921475877,0.9059453085218708,-0.2465153470748433,0.08046617353232892,-0.3824592532598084,1.1612692280723975,0
654,2.0672034348103296,0.8181322275086109,-0.3007423505877995,-0.3567960827643795,-0.5428557234802848,0.715193271272641,0
655,1.9827319786741624,0.8259378347097897,-0.2415097775198012,-0.4321861269534671,-0.3420443946215781,0.4405351494003018,6
656,2.0463830054809926,0.7303191464953512,-0.05964075035327129,0.031881478388250215,0.2262895549785349,0.1804865020956403,0
657,1.7311022184938907,0.8459397031628101,0.20315165128643933,0.4657930660543326,0.3349044875687788,0.031469861505328565,0
658,1.7840455959313477,0.9132630652729756,0.03045950163748665,0.4942737494146545,0.1391450160398509,-0.022098211909489383,0
659,1.7501380395949988,0.9415583913772484,-0.02376750187546952,0.2915582972617744,0.13535612304251682,-0.06397870567016521,0
660,1.7025484868422291,1.0025396976364565,0.017945577749881376,0.09721951668545953,0.15430058802918725,-0.08345800509373537,0
661,1.71623048325865,0.9927826886349832,-0.04879534965068005,0.03355681270356328,0.10630794339628884,-0.10098937457494853,0
662,1.6942203151104942,1.0371770795916868,-0.047126826465666016,-0.015027882440515446,0.09873015740162068,-0.0990414446325915,0
663,1.6864870127881688,1.0327864255410235,-0.1205418466062836,0.005076129343241261,0.08988940707450781,-0.0376816514483455,0
664,1.6662614528682416,1.044006985892718,-0.07716024379591865,-0.013352548125202384,0.08483754974472901,-0.01625442208241833,0
665,1.6882716210163975,0.99766119313572,-0.07048615105586252,-0.033456559908959106,0.062104191760724486,-0.036707686477167004,0
666,1.640087198854218,1.0342499768912448,-0.019596193912934427,-0.05020990306208968,-0.05914038415396629,-0.028915966707738938,0
667,1.6507948482235912,1.016199510238519,-0.004579485247808105,-0.025079888332393798,-0.10081820712464122,-0.02307217688066789,0
668,1.6918408374728555,1.0122967066379298,-0.10552513794115727,-0.01000187949457626,-0.07177002747841324,-0.011384597226525793,0
669,1.7114715279833732,1.0025396976364565,-0.03628142576307478,-0.018378551071141568,-0.057877419821521586,-0.000670982543562205,0
670,1.6965997927481329,1.0001004453860882,-0.11386775386622745,-0.0033005422333240125,0.028004154784717718,0.004198842312330336,0
671,1.6971946621575422,0.9854649318838782,-0.06047501194577831,-0.016703216755828483,-0.0010440248615102869,0.005172807283508842,0
672,1.7120663973927828,0.9961976417854989,-0.027104548245497587,-0.0016252079180109874,0.05705233443094571,0.0032248773411518265,0
673,1.6930305762916749,0.9893677354844675,-0.1205418466062836,-0.0083265451792632,0.015374511460270752,-0.007488737341811759,0
674,1.678753710465844,1.0313228741908027,0.010437223417318215,5.0126397302087016e-05,0.054526405766056316,-0.015280457111239822,0
675,1.678753710465844,1.0005882958361618,-0.0980167836085941,-0.0083265451792632,0.06589308475805858,0.0022509123699733192,0
676,1.7013587480234096,1.0113210057377824,-0.034612902578060746,0.010102132289180436,0.025478226119828317,-0.005540807399454745,0
677,1.6793485798752534,0.9971733426856462,-0.07799450538842567,0.01177746660449351,0.05073751276872223,0.011016597110579887,0
678,1.667451191687061,1.0069303516871195,-0.042955518503130924,5.0126397302087016e-05,0.033056012114496484,0.005172807283508842,0
679,1.6680460610964705,1.0005882958361618,-0.05046387283569409,-0.0066512108639501365,0.01790044012516014,0.01004263213940138,0
680,1.6864870127881688,0.9952219408853517,-0.043789780095637935,0.016803469550432684,0.01790044012516014,0.011990562081758398,0
681,1.6971946621575422,0.9869284832340992,-0.030441594615525664,0.021829472496371845,-0.017462561183291328,-0.0016449475147407126,0
682,1.6841075351505304,0.9922948381849096,-0.1113649690887064,0.028530809757624093,-0.02251441851307012,-0.0026189124859192204,0
683,1.6799434492846632,0.9991247444859408,-0.05964075035327129,0.021829472496371845,-0.04019591916729584,-0.004566842428276235,0
684,1.68470240455994,0.9986368940358672,-0.033778640985553735,0.028530809757624093,-0.01619959685084664,0.005172807283508842,0
685,1.6900562292446266,1.0040032489866777,-0.039618472133102864,0.028530809757624093,-0.0060958821912890605,-0.2461101552805462,0
686,1.6728050163717476,0.9937583895351304,-0.08300007494346777,0.03858281564950247,0.005270796800713201,0.005172807283508842,0
687,1.700763878614,1.004491099436751,-0.07298893583338358,0.031881478388250215,0.01663747579271545,0.005172807283508842,0
688,1.6710204081435187,1.0118088561878562,-0.09551399883107303,0.016803469550432684,0.049474548436277535,0.009068667168222877,0
689,1.6644768446400129,1.0093696039374878,-0.04962961124318707,0.013452800919806558,0.010322654130491963,-0.005540807399454745,0
690,1.6745896245999763,1.0127845570880034,-0.06548058150082041,0.013452800919806558,0.020426368790049537,0.0003029824276163032,0
691,1.6716152775529285,1.0103453048376352,-0.09885104520110112,0.008426797973867386,0.024215261787383632,0.01004263213940138,0
692,1.699574139795181,0.9952219408853517,-0.05046387283569409,-0.011677213809889323,-0.0073588465237337764,-0.000670982543562205,0
693,1.6650717140494224,0.9913191372847622,-0.07048615105586252,0.0034007950279282113,0.005270796800713201,-0.006514772370633253,0
694,1.6841075351505304,0.9639995120806368,-0.04545830328065198,0.005076129343241261,-0.01872552551573604,-0.011384597226525793,0
695,1.6799434492846632,1.0054668003368985,-0.06047501194577831,0.008426797973867386,0.028004154784717718,0.0012769473987948108,0
696,1.695410053929313,1.004491099436751,-0.07132041264836954,-0.0033005422333240125,0.026741190452273016,0.0071207372258658575,0
697,1.6864870127881688,0.9942462399852042,-0.05296665761321514,0.015128135235119631,0.026741190452273016,-0.2451361903093677,0
698,1.6811331881034823,0.9947340904352778,-0.051298134428201116,0.01177746660449351,0.04063379810916466,0.00614677225468735,0
699,1.7025484868422291,0.9991247444859408,-0.02960733302301864,0.005076129343241261,0.025478226119828317,0.0003029824276163032,0
700,1.6811331881034823,1.004978949886825,-0.04462404168814496,0.0034007950279282113,0.04568565543894345,0.008094702197044366,0
701,1.708497180936325,0.9927826886349832,-0.05046387283569409,0.005076129343241261,0.020426368790049537,-0.0016449475147407126,0
702,1.6965997927481329,1.0025396976364565,-0.057137965575750224,0.01177746660449351,0.014111547127826066,-0.008462702312990268,0
703,1.6876767516069882,0.9922948381849096,-0.027104548245497587,0.0034007950279282113,0.0317930477820518,-0.0016449475147407126,0
704,1.678753710465844,0.9869284832340992,-0.04545830328065198,0.006751463658554311,0.025478226119828317,-0.0026189124859192204,0
705,1.6733998857811572,0.9893677354844675,-0.08466859812848182,5.0126397302087016e-05,0.022952297454938927,0.0022509123699733192,0
706,1.6965997927481329,0.9937583895351304,-0.017093409135413372,0.016803469550432684,0.029267119117162406,0.0071207372258658575,0
707,1.6971946621575422,1.0098574543875616,-0.028773071430511624,0.0570114931179461,0.03937083377671997,0.012964527052936905,0
708,1.7108766585739636,0.9874163336841728,0.12473106159077968,0.16088222066735575,0.10378201473139942,0.03341779144768557,0
709,1.743594476091493,0.9230200742744492,0.24987030046683234,0.17093422655923413,-0.34962218061624617,-0.14579176324915988,0
710,1.9309783400555247,0.8552088617142096,-0.0012424388777800338,0.2831816256852091,-0.3129962149753501,-0.4535646941415684,0
711,2.149295413308858,0.8405733482119996,-0.1997966978944503,0.12570020004578153,-0.1892257103957699,-1.024308167252174,0
712,1.9238399071426096,0.949363998578427,-0.35330083091574155,-0.08706725799897701,0.3134340939172189,-1.5784942358527447,0
713,1.654364064680049,0.9235079247245228,-0.5284957653422153,-0.3685234229715708,1.0232200487511376,-2.0109346830560018,0
714,1.336108930645899,0.9103359625725338,-0.1997966978944503,-0.6952136144576175,1.0017496550995781,-2.3956508466715123,0
715,0.8286853244194881,0.8054481158066957,-0.3507980461382205,-0.990072453952716,1.275812915240077,-2.7589397809210965,0
716,0.4217946483833039,0.7386126041466036,-0.2932339962552363,-0.7270449664485656,2.233139879233156,-2.9264617559637998,0
717,-0.3794944460914625,0.7010481194909314,-0.16058640304662045,-0.4455888014759717,2.330388132831398,-2.8358830136441986,0
718,-0.7732979951206349,0.7039752221913733,-0.15307804871405728,0.12234953141515542,2.523621675695436,-2.541745592348289,0
719,-1.2200449215872642,0.7181228852435096,-0.6953480838436189,0.18433690108173856,1.8087838635317384,-2.179430623069884,0
720,-1.612658731797617,0.5781098060723677,-0.511810533492075,0.4641177317390196,1.8479357578375242,-1.8015322142526236,0
721,-1.6334791611269543,0.3795546728923859,-1.027384197661412,0.4423383856399497,1.126783124011603,-1.2492940755944095,0
722,-1.521048842748535,0.3819939251427542,-1.1508549133524506,0.15250554909079048,0.595075140052386,-1.0408655717622084,0
723,-1.779222166432313,0.2488107522726436,-0.9314441145231048,-0.12392461293586428,0.6556974280097314,-0.8772394566042193,0
724,-1.7512633041900605,0.112700476702091,-0.8363382929773049,-0.19763932280963886,0.53697878075993,-0.6834204273396963,0
725,-1.8845140518978163,0.12879954155452195,-0.9931794723686242,-0.08539192368366393,0.329852630239,-0.4253197099773916,0
726,-1.595407518924738,0.06489113259487178,-0.92727280656057,0.025180141126997967,0.1505116950318532,-0.2685113496176519,0
727,-1.5365154473931852,0.052207020892956486,-1.074937108434312,0.10057018531608564,0.3096452009198848,-0.2733811744735444,0
728,-2.1040208639699687,0.031717301989862536,-0.5935681695577627,0.3853770189193057,0.4169971691776839,-0.10001540960377,0
729,-1.3009471612669732,0.013666835337136928,-1.3368952484815158,0.14245354319891212,0.11009683639362293,-0.02599407179420341,0
730,-1.6287202058516772,0.031717301989862536,-1.2050819168654068,0.07376483627107669,0.04568565543894345,-0.011384597226525793,0
731,-1.5971921271529668,0.02927804973949422,-1.2092532248279422,-0.015027882440515446,-0.11471081478153287,-0.014306492140061315,0
732,-1.5882690860118227,0.01805748938779992,-1.0615889229541997,-0.033456559908959106,-0.1222886007762011,0.0032248773411518265,0
733,-1.5614999625883894,0.01708178848765259,-1.1133131416896351,-0.033456559908959106,-0.11218488611664347,-0.022098211909489383,0
734,-1.549007704990787,0.020008891188094576,-1.0891195555069313,-0.01000187949457626,-0.05408852682418749,-0.0123585621977043,0
735,-1.5472230967625584,0.008788330836400274,-1.1041362641720576,-0.0066512108639501365,-0.04903666949440872,-0.010410632255347285,0
736,-1.5543615296754743,0.0043976767857372865,-1.070765800471777,-0.036807228539585214,-0.16522938807932072,-0.03378579156363147,0
737,-1.5525769214472451,0.009764031736547605,-1.1108103569121135,-0.04518390011615051,-0.1500738160899844,-0.02112424693831087,0
738,-1.5359205779837757,0.006836929036105614,-1.0198758433288488,-0.07198924916115945,-0.2132220327122192,-0.01917631699595385,0
739,-1.5525769214472451,-0.002920079965367693,-0.9514663927432734,-0.02843055696301992,-0.1500738160899844,-0.01625442208241833,0
740,-1.4984438051909692,-0.020482696168019645,-0.9130903594879506,0.0017254607126151367,-0.06545520581618976,-0.01820235202477535,0
741,-1.5406795332590526,-0.0014565286151466967,-0.976494240518484,0.03858281564950247,-0.01493663251840193,-0.011384597226525793,0
742,-1.506771976922704,-0.002432229515294027,-1.0182073201438349,0.045284152910754674,-0.021251454180625413,-0.014306492140061315,0
743,-1.5121258016073906,0.005373377685884618,-0.9614775318533576,0.031881478388250215,-0.019988489848180725,0.0012769473987948108,0
744,-1.5412744026684622,-0.012677088966841001,-0.9739914557409628,-0.0033005422333240125,-0.05914038415396629,-0.011384597226525793,0
745,-1.5168847568826676,-0.007798584466104345,-0.9514663927432734,-0.004975876548637087,-0.06292927715130035,-0.006514772370633253,0
746,-1.5168847568826676,-0.017067743017503988,-0.9422895152256962,0.01177746660449351,0.01916340445760484,0.0022509123699733192,0
747,-1.5347308391649563,-0.0014565286151466967,-0.978162763703498,-0.013352548125202384,-0.047773705161964025,-0.0016449475147407126,0
748,-1.5109360627885713,-0.009262135816325342,-0.8913995580827678,-0.004975876548637087,-0.00483291785884438,0.0003029824276163032,0
749,-1.5436538803061006,-0.0009686781650730317,-0.9606432702608506,-0.02172921970176767,-0.026303311510404184,0.011016597110579887,0
750,-1.5240231897955832,-0.01462849076713566,-0.9205987138205136,-0.03513189422427214,-0.04272184783218524,0.01491245699529392,0
751,-1.5109360627885713,-0.03853316282074526,-0.8797198957876698,-0.04853456874677664,-0.06040334848641098,0.01491245699529392,0
752,-1.5252129286144025,-0.019506995267872317,-0.8780513726026559,-0.02340455401708073,-0.021251454180625413,0.01004263213940138,0
753,-1.5228334509767638,0.007812629936252945,-0.8847254653427121,-0.0083265451792632,-0.0073588465237337764,0.008094702197044366,0
754,-1.486546417002777,-0.017067743017503988,-0.8805541573801768,-0.0016252079180109874,-0.0010440248615102869,0.004198842312330336,0
755,-1.509746323969752,-0.0073107340160306795,-0.8738800646401207,-0.004975876548637087,0.005270796800713201,-0.2461101552805462,0
756,-1.5329462309367274,-0.0014565286151466967,-0.8304984618297558,-0.013352548125202384,-0.0073588465237337764,0.008094702197044366,0
757,-1.5234283203861734,-0.005359332215736019,-0.9089190515254156,-0.0066512108639501365,0.01158561846293667,0.00614677225468735,0
758,-1.5317564921179083,-0.019019144817798646,-0.8705430182700926,0.005076129343241261,0.006533761133157889,-0.0026189124859192204,0
759,-1.5014181522380172,-0.04292381687140825,-0.8888967733052471,0.006751463658554311,0.009059689798047277,-0.0016449475147407126,0
760,-1.5103411933791615,-0.01462849076713566,-0.9089190515254156,5.0126397302087016e-05,0.010322654130491963,0.008094702197044366,0
761,-1.6394278552210506,-0.02340979886846164,-1.1767170227201682,-0.10214526683679452,0.3222748442443318,0.17951253712446175,0
762,-1.9005755259518764,0.0731845902461241,-1.032389767216454,-0.28140603857529184,-0.43676671955493024,0.3996286206108045,0
763,-2.6376187242104034,-0.0038957808655150227,-0.7095305309162382,-0.11387260704398595,-1.1061378157506188,1.4904693883307334,0
764,-2.187302581287316,0.1561191667586472,-0.6077506166303821,0.12234953141515542,-1.7767718762787523,2.2725632601870758,0
765,-1.5823203919177264,0.3302817774349457,-0.6694859744759013,0.016803469550432684,-1.8361311999036527,2.7381185164104025,0
766,-1.032661057623232,0.5317640133153695,-0.3482952613606995,-0.07869058642241171,-1.9106460955178897,2.921223930991961,0
767,-0.4657505104558583,0.7698350329513182,-0.2598635325549556,-0.2244446718546479,-1.9990535987890188,2.8803174022024645,0
768,-0.04874705445971037,0.7381247536965299,0.024619670489937517,-0.20769132870151724,-2.218809392634396,2.767337465545757,0
769,0.4443996859408697,0.7659322293507288,-0.21314488337456255,0.04695948722606775,-2.5888579420406908,2.64851373906198,0
770,0.8376083655606325,0.7444668095474876,-0.3024108737728135,0.5763651308649943,-2.073568494403256,2.429371620546815,0
771,1.3164782401353814,0.7869097987038964,-0.4600863147566399,0.9549906861257458,-1.333471395590664,2.1254945495391206,0
772,1.537174791026353,0.7952032563551488,-0.31409053606791176,1.157706138278626,-0.7146188726927633,1.7641535452318942,0
773,1.9119425189544168,0.8791135337678192,-0.16142066463912744,1.1158227803957996,-0.4291889335602621,1.3911249612705257,0
774,1.9886806727682589,0.9713172688317421,-0.20146522107946432,0.591443139702812,-0.5024408648420544,0.9362833197301624,0
775,2.045193266662173,0.8254499842597159,-0.29573678103275736,-0.18926265123307354,0.1126227650585123,0.4648842736797646,6
776,1.9065886942697303,0.8586238148647253,-0.0137563627653853,-0.11219727272867283,0.3222748442443318,-0.10196333954612703,0
777,1.7293176102656618,1.1249901606049464,-0.07048615105586252,-0.23449667774652624,0.1782969103456365,-0.11267695422909063,0
778,1.7358611737691678,1.06156960209537,0.0187798393423884,-0.020053885386454636,0.05578937009850101,0.031469861505328565,0
779,1.7465688231385412,1.0293714723905079,-0.1964596515244222,0.11397285983859012,0.06589308475805858,0.05679295075596976,0
780,1.8084352417171423,1.0166873606885931,-0.17393458852673274,-0.0066512108639501365,0.04315972677405405,-0.02696803676538192,0
781,1.6620973670023742,1.0493733408435284,-0.11470201545873444,-0.026755222647706856,0.01916340445760484,0.0032248773411518265,0
782,1.7096869197551443,1.0225415660894768,-0.24985239344487134,-0.04015789717021133,0.08104865674739492,0.04510537110182766,0
783,1.7501380395949988,1.0054668003368985,-0.1021880915711292,-0.04685923443146358,0.08357458541228431,0.028547966591793032,0
784,1.7614405583737818,0.9991247444859408,-0.07716024379591865,-0.03010589127833298,0.08988940707450781,0.024652106707079,0
785,1.7269381326280235,1.0054668003368985,-0.13138724730887485,-0.01000187949457626,0.05200047710116692,0.022704176764721987,0
786,1.7388355208162158,1.005954650786972,-0.10802792271867832,-0.018378551071141568,0.07473383508517145,0.011990562081758398,0
787,1.7400252596350352,1.0001004453860882,-0.1255474161613257,-0.020053885386454636,0.062104191760724486,0.012964527052936905,0
788,1.6805383186940726,1.0093696039374878,-0.1205418466062836,-0.015027882440515446,0.07978569241495022,0.008094702197044366,0
789,1.7108766585739636,0.991806987734836,-0.09301121405355198,-0.011677213809889323,0.06968197775539266,0.01004263213940138,0
790,1.7388355208162158,1.0015639967363092,-0.06881762787084847,-0.011677213809889323,0.06841901342294797,0.008094702197044366,0
791,1.7221791773527464,0.9908312868346886,-0.09885104520110112,-0.004975876548637087,0.036844905111830584,0.0003029824276163032,0
792,1.6965997927481329,1.0079060525872667,-0.09718252201608707,-0.0016252079180109874,0.022952297454938927,0.0003029824276163032,0
793,1.7120663973927828,1.0157116597884457,-0.027104548245497587,-0.0033005422333240125,0.024215261787383632,-0.006514772370633253,0
794,1.700763878614,1.0103453048376352,-0.06798336627834146,-0.0083265451792632,0.026741190452273016,-0.007488737341811759,0
795,1.7192048303056984,0.9937583895351304,-0.08550285972098884,-0.0083265451792632,0.028004154784717718,-0.0016449475147407126,0
796,1.7180150914868793,0.9991247444859408,-0.03628142576307478,-0.0016252079180109874,0.01158561846293667,-0.004566842428276235,0
797,1.6876767516069882,1.0391284813919814,-0.026270286652990568,0.006751463658554311,0.028004154784717718,-0.000670982543562205,0
798,1.6924357068822649,0.9932705390850568,-0.041286995318116894,-0.004975876548637087,0.0305300834496071,0.0003029824276163032,0
799,1.7114715279833732,1.0005882958361618,-0.027104548245497587,-0.016703216755828483,0.006533761133157889,-0.010410632255347285,0
800,1.715040744439831,0.9883920345843202,-0.05046387283569409,0.0034007950279282113,0.0317930477820518,-0.008462702312990268,0
801,1.6739947551905667,1.004491099436751,-0.05296665761321514,-0.013352548125202384,0.014111547127826066,-0.0035928774570977273,0
802,1.7376457819973967,0.9869284832340992,-0.09885104520110112,-0.0016252079180109874,0.026741190452273016,0.0022509123699733192,0
803,1.695410053929313,1.0020518471863828,-0.034612902578060746,-0.0033005422333240125,0.006533761133157889,0.0032248773411518265,0
804,1.7019536174328191,0.9888798850343938,-0.062143535130792335,0.0034007950279282113,0.0077967254656025765,0.0032248773411518265,0
805,1.7061177032986865,1.0074182021371931,-0.053800919205722164,0.0034007950279282113,0.014111547127826066,-0.0016449475147407126,0
806,1.695410053929313,0.9888798850343938,-0.07215467424087656,0.01177746660449351,0.0027448681358237964,0.005172807283508842,0
807,1.708497180936325,0.9961976417854989,-0.039618472133102864,0.0034007950279282113,0.01663747579271545,-0.0035928774570977273,0
808,1.6942203151104942,0.9942462399852042,-0.05296665761321514,0.0017254607126151367,0.0077967254656025765,-0.0016449475147407126,0
809,1.7370509125879872,0.99766119313572,-0.04879534965068005,-0.0033005422333240125,0.01790044012516014,-0.0026189124859192204,0
810,1.6650717140494224,0.9903434363846148,-0.025436025060483557,0.006751463658554311,0.0027448681358237964,0.0022509123699733192,0
811,1.7013587480234096,0.9913191372847622,-0.030441594615525664,0.01177746660449351,0.01158561846293667,-0.2461101552805462,0
812,1.7061177032986865,0.9942462399852042,-0.1205418466062836,0.010102132289180436,0.010322654130491963,0.004198842312330336,0
813,1.699574139795181,0.9957097913354253,-0.032944379393046716,0.0017254607126151367,0.01790044012516014,-0.005540807399454745,0
814,1.6977895315669518,1.0001004453860882,-0.042955518503130924,0.01177746660449351,0.01158561846293667,0.004198842312330336,0
815,1.6864870127881688,1.004978949886825,-0.05046387283569409,0.006751463658554311,0.022952297454938927,0.00614677225468735,0
816,1.7376457819973967,0.9879041841342464,-0.039618472133102864,0.008426797973867386,0.015374511460270752,0.0022509123699733192,0
817,1.6989792703857711,1.0015639967363092,-0.06881762787084847,0.010102132289180436,0.026741190452273016,0.0071207372258658575,0
818,1.7049279644798674,0.9937583895351304,-0.0880056444985099,5.0126397302087016e-05,0.028004154784717718,0.0003029824276163032,0
819,1.6936254457010844,0.9903434363846148,-0.028773071430511624,0.0017254607126151367,0.006533761133157889,-0.005540807399454745,0
820,1.6781588410564343,1.004491099436751,-0.02460176346797653,0.01177746660449351,0.005270796800713201,-0.0016449475147407126,0
821,1.7358611737691678,0.991806987734836,-0.07132041264836954,0.01177746660449351,0.0077967254656025765,-0.0026189124859192204,0
822,1.6882716210163975,0.9898555859345411,-0.06798336627834146,0.0017254607126151367,0.024215261787383632,0.00614677225468735,0
823,1.705522833889277,0.9937583895351304,-0.0371156873555818,0.01177746660449351,0.012848582795381359,0.005172807283508842,0
824,1.705522833889277,1.006442501237046,-0.10469087634865024,0.008426797973867386,0.033056012114496484,0.25158594499167136,0
825,1.6876767516069882,0.9937583895351304,-0.04962961124318707,0.051985490172006925,0.04442269110649876,0.016860386937650938,0
826,1.6876767516069882,0.9966854922355726,0.03045950163748665,0.06706349900982446,0.028004154784717718,0.018808316880007957,0
827,1.678753710465844,1.0020518471863828,-0.07132041264836954,0.05868682743325916,0.04315972677405405,0.013938492024115413,0
828,1.6924357068822649,1.0015639967363092,-0.14223264801146607,0.018478803865745744,0.0077967254656025765,-0.000670982543562205,0
829,1.7043330950704576,0.9893677354844675,-0.04879534965068005,0.0201541381810588,0.02168933312249423,0.2496380150493143,0
830,1.6942203151104942,1.0001004453860882,-0.05046387283569409,0.03690748133418939,0.03937083377671997,0.02660003664943601,0
831,1.7299124796750716,0.9591210075799004,0.2832407641671131,0.1022455196313987,-0.11471081478153287,0.011016597110579887,0
832,1.7186099608962888,0.944973344527764,0.057155872597711224,0.22286959033393894,-0.3786703602624743,-0.06592663561252224,0
833,1.845317145100539,0.9244836256246701,-0.07132041264836954,0.2128175844420606,-0.5719039031265126,-0.1993598366639778,0
834,1.8459120145099488,1.0166873606885931,-0.32076462880796786,0.14915488046016434,-0.5264371871585036,-0.3191575281189343,0
835,1.8851733955309842,1.048397639943381,-0.465091884311682,0.09219351373952037,-0.08439967080286018,-0.4681741687092459,0
836,1.8048660252606843,1.0557153966944859,-0.3399526454356293,-0.03010589127833298,0.07347087075272675,-0.6658890578584833,0
837,1.8054608946700939,1.0054668003368985,-0.465091884311682,-0.3098867219356139,0.35006005955811514,-0.9084063356819316,0
838,1.5359850522075336,0.9981490435857936,-0.3799972018759661,-0.6466289193135387,0.8034642549057607,-1.1655330880730574,0
839,1.57346182500034,0.958145306679753,-0.3416211686206433,-0.8878770607186193,1.2745499509076323,-1.4908373884466788,0
840,1.2926834637589963,0.933264933725996,-0.06297779672329935,-1.0520598236192993,1.1154164450196005,-1.8093239340220515,0
841,0.9161311276027032,0.8903340941195135,0.093029121075513,-0.9666177735383332,1.2429758425965147,-2.0946956705773543,0
842,0.4687893317266643,0.8200836293089057,0.06216144215275333,-0.5812908810163296,1.3768500618356525,-2.283644874985985,0
843,-0.15106459287816607,0.8781378328676719,0.2940861648697043,-0.18423664828713446,1.826465364185964,-2.3596141427379083,0
844,-0.4627761634088101,0.8761864310673771,-0.014590624357892318,0.19103823834299086,2.2154583785789304,-2.0002210683730386,0
845,-0.6668163708363118,0.8776499824175982,-0.18394572763681694,0.6400278348468906,2.649918108939905,-1.7947144594543738,0
846,-0.967225422588173,0.7469060617978559,-0.3307757679180521,0.3904030218652448,1.463994600774337,-1.383701241617043,0
847,-0.9666305531787636,0.6688499897860695,-0.8179845379421505,0.2915582972617744,1.4134760274765488,-1.3466905727122598,0
848,-1.4240851290147658,0.5537172835686844,-0.5893968615952276,0.045284152910754674,0.5710788177359368,-1.0700845208975636,0
849,-1.2527627391047935,0.4912724259592552,-0.8488522168649102,-0.0016252079180109874,0.7794679325893116,-0.9960631830879972,0
850,-1.521048842748535,0.3380873846361244,-0.6828341599560136,-0.15072996198087324,0.2237636263136455,-0.9639223390391064,0
851,-1.5484128355813778,0.25612850902374856,-0.7111990541012523,-0.17753531102588216,0.2742821996114333,-0.7681553798322265,0
852,-1.6435919410869182,0.23563879012065464,-0.5927339079652557,-0.09376859526022924,-0.14502195876020554,-0.60258133473188,0
853,-1.5620948319977992,0.18490234331299346,-0.6719887592534224,-0.020053885386454636,0.10630794339628884,-0.4048664455826429,0
854,-1.4758387676334033,0.102455617250544,-0.8288299386447417,0.043608818595441634,0.15808948102652134,-0.3922049009573223,0
855,-1.4675105959016683,0.07416029114627143,-0.7504093489490821,-0.0066512108639501365,0.2275525193109796,-0.30357408858007817,0
856,-1.5882690860118227,0.08977150554862871,-0.8104761836095874,-0.036807228539585214,0.01158561846293667,-0.2451361903093677,0
857,-1.5156950180638482,0.03415655424023087,-0.7128675772862663,0.0034007950279282113,0.13535612304251682,-0.1720888174709796,0
858,-1.5228334509767638,0.03757150739074653,-0.8271614154597278,0.045284152910754674,0.04442269110649876,-0.11559884914262612,0
859,-1.4627516406263916,0.02537524613890489,-0.7545806569116171,0.0486348215413808,0.14419687336962972,-0.09319765480552046,0
860,-1.7607812147406143,0.02927804973949422,-0.6936795606586049,0.08716751079358116,0.09494126440428656,-0.0240461418518464,0
861,-1.4913053722780536,0.032205152439936206,-0.8288299386447417,0.0570114931179461,-0.030092204507738283,-0.006514772370633253,0
862,-1.4936848499156918,0.0224481434384629,-0.8713772798625997,0.025180141126997967,0.01663747579271545,-0.03378579156363147,0
863,-1.4883310252310056,0.02488739568883123,-0.9381182072631612,-0.051885237377402735,-0.10460710012197534,-0.04352544127541655,0
864,-1.4853566781839571,-0.0038957808655150227,-0.7629232728366874,-0.08036592073772475,-0.2258516760366661,-0.04644733618895208,0
865,-1.506771976922704,0.04684066594214617,-0.8029678292770243,-0.11554794135929901,-0.21827389004199796,-0.000670982543562205,0
866,-1.4359825172029583,-0.0038957808655150227,-0.6586405737733101,-0.08371658936835087,-0.0995552427921965,0.017834351908829447,0
867,-1.4449055583441028,0.003909826335663622,-0.7337241170989417,-0.04518390011615051,-0.03640702616996175,0.00614677225468735,0
868,-1.4377671254311872,-0.008774285366251676,-0.7061934845462101,-0.004975876548637087,-0.03893295483485116,0.009068667168222877,0
869,-1.4484747748005606,0.014154685787210594,-0.6444581267006908,0.018478803865745744,0.005270796800713201,0.004198842312330336,0
870,-1.4288440842900432,-0.010725687166546335,-0.7487408257640681,0.030206144072937157,0.03431897644694118,0.0012769473987948108,0
871,-1.4484747748005606,-0.014140640317061994,-0.7228787163963505,-0.004975876548637087,-0.03640702616996175,0.004198842312330336,0
872,-1.4199210431488984,0.0019584245353689604,-0.702856438176182,-0.013352548125202384,-0.008621810856178464,0.0032248773411518265,0
873,-1.4312235619276814,0.012691134436989595,-0.6953480838436189,-0.02340455401708073,-0.04019591916729584,0.015886421966472428,0
874,-1.450259383028789,-0.0073107340160306795,-0.6653146665133662,-0.033456559908959106,-0.03388109750507237,0.011990562081758398,0
875,-1.4484747748005606,-0.011701388066693668,-0.6719887592534224,-0.02340455401708073,-0.041458883499740536,0.011990562081758398,0
876,-1.4282492148806332,-0.002432229515294027,-0.7003536533986611,-0.0066512108639501365,-0.019988489848180725,0.0012769473987948108,0
877,-1.4163518266924406,0.012691134436989595,-0.6819998983635066,0.0034007950279282113,-0.0073588465237337764,0.0071207372258658575,0
878,-1.4431209501158742,0.001470574085295295,-0.6786628519934785,-0.01000187949457626,-0.009884775188623152,0.008094702197044366,0
879,-1.4449055583441028,-0.002920079965367693,-0.6586405737733101,-0.0016252079180109874,0.0002189394709344104,0.013938492024115413,0
880,-1.4115928714171635,0.011715433536842266,-0.6870054679185488,0.0017254607126151367,0.03558194077938588,0.012964527052936905,0
881,-1.4347927783841392,7.022735074299172e-06,-0.6402868187381557,0.013452800919806558,0.024215261787383632,-0.2461101552805462,0
882,-1.4377671254311872,0.011715433536842266,-0.6986851302136471,0.013452800919806558,0.004007832468268494,0.0003029824276163032,0
883,-1.4437158195252835,-0.010237836716472671,-0.7011879149911681,0.02350480681168493,0.025478226119828317,-0.000670982543562205,0
884,-1.4526388606664282,0.010251882186621273,-0.7111990541012523,-0.0016252079180109874,-0.01872552551573604,-0.000670982543562205,0
885,-1.4163518266924406,-0.0073107340160306795,-0.655303527403282,-0.0066512108639501365,-0.03893295483485116,-0.000670982543562205,0
886,-1.4324133007465008,0.0043976767857372865,-0.6603090969583242,-0.004975876548637087,-0.01872552551573604,0.0032248773411518265,0
887,-1.4306286925182718,0.004885527235810952,-0.6561377889957891,0.01177746660449351,0.014111547127826066,0.009068667168222877,0
888,-1.4139723490548022,-0.001944379065220362,-0.6569720505882961,0.025180141126997967,0.0317930477820518,0.008094702197044366,0
889,-1.4538285994852471,-0.00633503311588335,-0.6769943288084646,0.025180141126997967,0.028004154784717718,0.0032248773411518265,0
890,-1.4466901665723315,-0.0004808277149993661,-0.6694859744759013,0.030206144072937157,0.024215261787383632,0.00614677225468735,0
891,-1.43360303956532,0.011227583086768602,-0.6528007426257609,0.013452800919806558,0.014111547127826066,0.008094702197044366,0
892,-1.4347927783841392,7.022735074299172e-06,-0.6528007426257609,0.006751463658554311,0.0027448681358237964,0.0003029824276163032,0
893,-1.4550183383040665,-0.0009686781650730317,-0.6252701100730294,0.0017254607126151367,-0.0060958821912890605,0.004198842312330336,0
894,-1.4306286925182718,-0.002432229515294027,-0.6127561861854242,0.015128135235119631,0.0077967254656025765,0.0012769473987948108,0
895,-1.4449055583441028,0.003421975885589956,-0.6469609114782119,0.010102132289180436,-0.003569953526399673,0.0012769473987948108,0
896,-1.4121877408265733,-0.005847182665809685,-0.6419553419231697,0.026855475442311042,0.006533761133157889,-0.0035928774570977273,0
897,-1.4318184313370907,0.004885527235810952,-0.6286071564430574,0.025180141126997967,0.024215261787383632,-0.0016449475147407126,0
898,-1.4377671254311872,0.009276181286473941,-0.6594748353658171,0.013452800919806558,0.004007832468268494,0.0012769473987948108,0
899,-1.4264646066524045,0.005861228135958282,-0.6344469875906066,0.026855475442311042,0.0305300834496071,0.0003029824276163032,0
900,-1.41754156551126,-0.0009686781650730317,-0.6461266498857049,0.016803469550432684,0.026741190452273016,0.0012769473987948108,0
901,-1.439551733659416,0.002934125435516291,-0.6511322194407471,0.016803469550432684,0.022952297454938927,0.25158594499167136,0
902,-1.4472850359817413,0.012203283986915931,-0.6219330637030013,5.0126397302087016e-05,-0.0010440248615102869,0.004198842312330336,0
903,-1.4407414724782357,0.001470574085295295,-0.6628118817358452,5.0126397302087016e-05,0.001481903803379108,0.005172807283508842,0
904,-1.4377671254311872,0.006836929036105614,-0.6836684215485207,5.0126397302087016e-05,-0.009884775188623152,0.008094702197044366,0
905,-1.4312235619276814,0.003909826335663622,-0.6511322194407471,0.01177746660449351,0.01663747579271545,0.0012769473987948108,0
906,-1.4282492148806332,-0.001944379065220362,-0.6094191398153961,0.013452800919806558,0.006533761133157889,-0.0016449475147407126,0
907,-1.4270594760618138,0.002934125435516291,-0.6311099412205785,0.016803469550432684,-0.0010440248615102869,-0.000670982543562205,0
908,-1.4258697372429947,0.005373377685884618,-0.6769943288084646,0.01177746660449351,0.01916340445760484,0.004198842312330336,0
909,-1.4312235619276814,-0.002920079965367693,-0.6402868187381557,0.0034007950279282113,-0.00483291785884438,-0.0035928774570977273,0
910,-1.439551733659416,0.007812629936252945,-0.6377840339606347,0.013452800919806558,0.009059689798047277,0.005172807283508842,0
911,-1.3830391397655015,0.008788330836400274,-0.6477951730707189,0.0201541381810588,0.022952297454938927,0.004198842312330336,0
912,-1.4341979089747294,0.008788330836400274,-0.6344469875906066,0.013452800919806558,0.020426368790049537,0.004198842312330336,0
913,-1.4431209501158742,0.002446274985442625,-0.6561377889957891,0.008426797973867386,-0.002306989193954985,0.0032248773411518265,0
914,-1.4264646066524045,0.002934125435516291,-0.6628118817358452,0.0201541381810588,0.02168933312249423,0.0032248773411518265,0
915,-1.4431209501158742,0.003909826335663622,-0.6886739911035628,0.006751463658554311,0.01158561846293667,0.005172807283508842,0
916,-1.4330081701559103,0.004885527235810952,-0.6528007426257609,0.016803469550432684,0.022952297454938927,0.005172807283508842,0
917,-1.4371722560217777,-0.0014565286151466967,-0.6728230208459294,0.008426797973867386,0.025478226119828317,0.0032248773411518265,0
918,-1.4169466961018504,0.0019584245353689604,-0.6461266498857049,-0.0016252079180109874,0.0002189394709344104,0.0032248773411518265,0
919,-1.4252748678335851,-0.0004808277149993661,-0.6236015868880154,0.01177746660449351,0.026741190452273016,-0.000670982543562205,0
920,-1.41754156551126,-0.005847182665809685,-0.6719887592534224,0.016803469550432684,0.01663747579271545,0.0003029824276163032,0
921,-1.4371722560217777,-0.0004808277149993661,-0.6486294346632259,0.021829472496371845,0.029267119117162406,-0.004566842428276235,0
922,-1.436577386612368,0.0019584245353689604,-0.6594748353658171,0.01177746660449351,0.009059689798047277,-0.0016449475147407126,0
923,-1.4264646066524045,0.010251882186621273,-0.6169274941479592,-0.0033005422333240125,0.028004154784717718,0.0012769473987948108,0
924,-1.4217056513771271,0.013666835337136928,-0.6519664810332539,5.0126397302087016e-05,-0.021251454180625413,-0.004566842428276235,0
925,-1.4419312112970546,-0.008286434916178009,-0.6336127259980996,0.018478803865745744,0.01663747579271545,-0.008462702312990268,0
926,-1.4359825172029583,-0.002920079965367693,-0.6252701100730294,0.015128135235119631,0.01790044012516014,-0.0026189124859192204,0
927,-1.4353876477935488,0.015130386687357925,-0.649463696255733,0.013452800919806558,0.015374511460270752,-0.0016449475147407126,0
928,-1.4407414724782357,-0.002920079965367693,-0.6886739911035628,0.0034007950279282113,0.014111547127826066,0.0012769473987948108,0
929,-1.4211107819677178,0.008300480386326609,-0.6327784644055926,0.006751463658554311,0.024215261787383632,0.008094702197044366,0
930,-1.4353876477935488,0.005373377685884618,-0.6594748353658171,5.0126397302087016e-05,0.026741190452273016,0.0032248773411518265,0
931,-1.4318184313370907,-0.010725687166546335,-0.6386182955531416,0.0017254607126151367,0.015374511460270752,0.0022509123699733192,0
932,-1.4341979089747294,0.011715433536842266,-0.6219330637030013,0.013452800919806558,0.010322654130491963,-0.0016449475147407126,0
933,-1.4455004277535124,0.005861228135958282,-0.6261043716655365,0.015128135235119631,0.005270796800713201,0.0022509123699733192,0
934,-1.4853566781839571,0.044889264141851515,-0.7604204880591663,0.005076129343241261,0.03558194077938588,0.031469861505328565,0
935,-1.5900536942400516,0.013178984887063264,-0.8054706140545452,-0.2713540326834135,-0.20059238938777216,0.12010067388257276,0
936,-2.744100348494726,-0.0926845627789221,-0.4333899437964153,-0.1390026217736818,-0.4986519718447203,1.1252325241387928,0
937,-2.4954449353615025,0.09318645869914437,-0.3416211686206433,0.25302560800957397,-1.2033860693488605,2.277433085042968,0
938,-2.0231186242902592,0.226369631569255,-0.5076392255295399,0.1726095608745472,-1.7641422329543053,3.1111471003717703,0
939,-1.1718604994250843,0.3644313089401023,-0.2465153470748433,0.018478803865745744,-2.072305530070811,3.45787863011132,0
940,-0.5228579737591823,0.5463995268175794,-0.32076462880796786,-0.016703216755828483,-2.7884063065669533,3.5640408119697766,0
941,0.3408924087035947,0.5576200871692737,-0.0321101178005397,0.1189988627845293,-3.2039215719412586,3.3984667668694306,0
942,0.9559873780331479,0.5864032637236201,-0.35330083091574155,0.392078356180558,-3.447673688103084,3.008880778398027,0
943,1.4045189127280062,0.5932331700246514,-0.4967938248269487,0.9851467038013808,-2.458772615798888,2.4050224962673523,0
